OOIBase32 Version 1.0.0.8 Data File
++++++++++++++++++++++++++++++++++++
Date: Monday, January 21, 1980, 09:20:44
User: Valued Ocean Optics Customer
Spectrometer Serial Number: Unknown
Spectrometer Channel: Master
Integration Time (msec): 20
Spectra Averaged: 20
Boxcar Smoothing: 0
Correct for Electrical Dark: Disabled
Time Normalized: Disabled
Dual-beam Reference: Disabled
Reference Channel: Master
>>>>>Begin Spectral Data<<<<<
179.00	0.0000
179.38	0.0000
179.75	54.7000
180.13	56.0500
180.51	56.5500
180.88	56.9500
181.26	56.8000
181.64	56.9500
182.02	56.2500
182.39	57.2500
182.77	56.3500
183.15	55.9000
183.52	56.5500
183.90	55.5500
184.28	55.5000
184.65	56.1500
185.03	56.6500
185.41	56.3500
185.78	55.3500
186.16	55.8000
186.53	54.9500
186.91	56.8500
187.29	56.8000
187.66	57.0500
188.04	57.3000
188.42	57.0500
188.79	57.0000
189.17	58.2000
189.55	57.3000
189.92	58.1000
190.30	57.0500
190.67	56.0000
191.05	56.3500
191.43	56.9500
191.80	56.7500
192.18	56.9500
192.56	57.7500
192.93	57.6500
193.31	57.0500
193.68	56.3000
194.06	57.2500
194.44	57.1000
194.81	57.2500
195.19	57.5000
195.56	58.0500
195.94	57.4000
196.32	56.9000
196.69	56.9500
197.07	56.8500
197.44	57.9500
197.82	57.2000
198.19	58.5000
198.57	56.5500
198.95	57.3500
199.32	57.0500
199.70	57.3000
200.07	58.0000
200.45	56.8000
200.82	57.1000
201.20	57.9000
201.57	57.7500
201.95	57.5500
202.33	58.0000
202.70	57.8000
203.08	57.6500
203.45	57.9500
203.83	58.1000
204.20	57.9000
204.58	56.7500
204.95	57.4000
205.33	58.4500
205.70	57.4500
206.08	57.2000
206.45	56.9000
206.83	56.8000
207.20	58.1000
207.58	57.8500
207.95	57.4500
208.33	57.3000
208.70	58.0000
209.08	57.3000
209.45	58.1000
209.83	56.4000
210.20	58.0000
210.58	58.7000
210.95	58.1000
211.33	58.2500
211.70	57.3000
212.08	57.6500
212.45	56.6500
212.83	58.1000
213.20	57.4500
213.58	57.3000
213.95	58.2500
214.33	57.6000
214.70	57.6500
215.07	57.7000
215.45	58.6500
215.82	56.8000
216.20	57.1000
216.57	58.6500
216.95	57.3000
217.32	58.7000
217.70	57.3500
218.07	58.0500
218.44	57.3500
218.82	58.0000
219.19	57.9000
219.57	57.6500
219.94	57.3000
220.32	56.7500
220.69	57.4000
221.06	57.4000
221.44	57.4000
221.81	58.1500
222.19	58.0000
222.56	59.0000
222.93	58.3000
223.31	57.6500
223.68	56.6000
224.06	56.0500
224.43	57.9500
224.80	57.2500
225.18	57.6000
225.55	58.0500
225.92	58.0000
226.30	56.9500
226.67	56.6500
227.05	57.3000
227.42	58.2000
227.79	58.3500
228.17	58.0000
228.54	57.7000
228.91	57.9000
229.29	56.7500
229.66	57.7500
230.03	57.8500
230.41	57.7000
230.78	57.6000
231.15	57.9500
231.53	57.8500
231.90	57.4500
232.27	56.6000
232.65	58.4000
233.02	57.6000
233.39	58.0000
233.77	57.5500
234.14	57.5500
234.51	58.5500
234.89	57.5500
235.26	57.3000
235.63	58.2500
236.01	57.4000
236.38	58.2500
236.75	56.8500
237.12	57.6500
237.50	56.4000
237.87	58.2500
238.24	57.5500
238.62	58.8000
238.99	58.6500
239.36	57.5000
239.73	57.2500
240.11	57.2500
240.48	57.6000
240.85	57.7500
241.23	57.8500
241.60	58.2500
241.97	58.1500
242.34	57.1000
242.72	57.2500
243.09	57.6500
243.46	57.3000
243.83	58.2500
244.21	57.8000
244.58	57.6500
244.95	57.7500
245.32	56.5500
245.70	59.6000
246.07	58.9000
246.44	56.9000
246.81	57.3500
247.18	58.1000
247.56	58.8500
247.93	58.2000
248.30	57.9000
248.67	57.6000
249.04	57.8000
249.42	58.6500
249.79	58.8500
250.16	57.1000
250.53	58.1500
250.90	57.8000
251.28	58.2500
251.65	57.4000
252.02	57.4000
252.39	56.9500
252.76	57.4500
253.14	58.1000
253.51	57.8500
253.88	58.6000
254.25	58.3500
254.62	57.5000
254.99	57.5500
255.37	57.6000
255.74	57.7000
256.11	58.2000
256.48	58.6500
256.85	57.7000
257.22	56.9000
257.59	58.9000
257.97	57.7500
258.34	57.3000
258.71	57.9500
259.08	57.8000
259.45	57.2000
259.82	58.6500
260.19	58.0000
260.56	57.5500
260.94	57.4000
261.31	57.5000
261.68	57.7000
262.05	58.4000
262.42	57.9500
262.79	57.7000
263.16	58.0000
263.53	58.0000
263.90	58.0500
264.28	57.4000
264.65	58.0000
265.02	58.1500
265.39	58.4500
265.76	57.7500
266.13	57.7000
266.50	58.2500
266.87	58.2500
267.24	56.7000
267.61	57.3500
267.98	57.4500
268.35	58.8500
268.72	58.1500
269.09	57.6000
269.46	57.6500
269.84	58.3000
270.21	58.9000
270.58	57.7000
270.95	57.5000
271.32	58.0000
271.69	58.3000
272.06	59.3500
272.43	57.6500
272.80	57.8000
273.17	58.2500
273.54	58.3500
273.91	57.0500
274.28	58.9000
274.65	58.0000
275.02	57.5000
275.39	58.6000
275.76	58.8500
276.13	57.9500
276.50	58.5500
276.87	57.8000
277.24	57.1500
277.61	58.1000
277.98	57.9000
278.35	58.2500
278.72	58.5500
279.09	58.6000
279.46	57.6500
279.83	58.0000
280.20	57.9000
280.57	58.5500
280.94	58.5500
281.31	57.8500
281.67	57.6000
282.04	56.5000
282.41	57.5500
282.78	57.7000
283.15	57.3000
283.52	57.9500
283.89	59.6000
284.26	57.9500
284.63	56.9500
285.00	56.4000
285.37	57.3500
285.74	57.9500
286.11	57.4000
286.48	57.6500
286.85	58.0500
287.21	57.3000
287.58	58.3000
287.95	57.6500
288.32	57.9000
288.69	58.1500
289.06	58.6000
289.43	58.1500
289.80	58.3500
290.17	57.0000
290.54	58.7500
290.90	58.1000
291.27	59.0500
291.64	57.6500
292.01	58.2500
292.38	57.2500
292.75	57.7500
293.12	58.1000
293.48	57.1500
293.85	58.3000
294.22	58.4000
294.59	56.9500
294.96	57.8500
295.33	58.0000
295.70	59.1000
296.06	58.1500
296.43	57.5500
296.80	57.4500
297.17	58.8000
297.54	57.6500
297.91	57.8500
298.27	57.6500
298.64	57.6500
299.01	58.6500
299.38	58.5000
299.75	57.5500
300.11	58.1000
300.48	58.1500
300.85	57.8000
301.22	57.8000
301.59	57.8500
301.95	58.5500
302.32	57.7500
302.69	57.2000
303.06	58.0500
303.43	58.0000
303.79	58.6500
304.16	57.3500
304.53	58.1000
304.90	59.1500
305.26	57.9000
305.63	58.1500
306.00	58.3000
306.37	58.4500
306.73	57.8000
307.10	56.9500
307.47	57.8000
307.84	57.5000
308.20	58.2000
308.57	57.5000
308.94	58.3000
309.31	57.6500
309.67	57.8000
310.04	58.3500
310.41	57.9000
310.77	59.1000
311.14	57.9000
311.51	57.7000
311.88	57.8500
312.24	58.2500
312.61	58.6500
312.98	58.9500
313.34	58.0500
313.71	58.1500
314.08	57.8000
314.44	58.3000
314.81	58.9500
315.18	57.6000
315.55	57.8000
315.91	57.5000
316.28	57.9000
316.65	56.7500
317.01	56.8000
317.38	57.7000
317.75	60.9000
318.11	59.1500
318.48	58.3500
318.84	57.2000
319.21	57.1000
319.58	56.9000
319.94	57.2500
320.31	56.9500
320.68	58.8500
321.04	57.3500
321.41	57.9000
321.78	58.3500
322.14	58.0000
322.51	58.1500
322.87	58.7000
323.24	57.2000
323.61	58.1000
323.97	58.0500
324.34	58.9000
324.70	58.5000
325.07	57.4000
325.44	57.9500
325.80	57.3500
326.17	56.6000
326.53	57.3500
326.90	57.0000
327.27	58.3000
327.63	57.5500
328.00	57.5000
328.36	57.3000
328.73	57.0500
329.09	58.0000
329.46	58.1500
329.83	57.5000
330.19	57.4500
330.56	57.7000
330.92	57.9000
331.29	57.7500
331.65	57.6000
332.02	57.8000
332.38	58.0000
332.75	58.1500
333.11	57.9000
333.48	58.0000
333.84	57.4500
334.21	56.9500
334.58	57.0500
334.94	57.4500
335.31	57.6000
335.67	57.7000
336.04	56.9000
336.40	57.4000
336.77	58.1000
337.13	56.8000
337.50	58.4000
337.86	57.7500
338.22	56.7000
338.59	57.1000
338.95	58.5500
339.32	58.0500
339.68	57.4500
340.05	57.4000
340.41	56.6500
340.78	57.8000
341.14	57.5000
341.51	57.6000
341.87	58.4000
342.24	57.5500
342.60	58.0000
342.96	57.6500
343.33	57.7000
343.69	57.0500
344.06	57.9000
344.42	57.5000
344.79	57.9500
345.15	57.6000
345.51	57.1000
345.88	56.8500
346.24	57.3500
346.61	58.0500
346.97	57.1500
347.34	57.5500
347.70	57.3500
348.06	57.3000
348.43	57.3500
348.79	57.7000
349.16	58.7000
349.52	58.8500
349.88	58.5500
350.25	57.2500
350.61	58.5000
350.97	57.2000
351.34	57.8500
351.70	58.2500
352.07	58.0500
352.43	57.4500
352.79	58.6000
353.16	58.4000
353.52	58.5500
353.88	58.5000
354.25	57.5500
354.61	58.8000
354.97	57.8500
355.34	58.5000
355.70	58.6000
356.06	58.6500
356.43	57.3000
356.79	57.9500
357.15	57.7000
357.52	59.1000
357.88	56.8500
358.24	58.0000
358.60	57.6000
358.97	58.9500
359.33	57.7000
359.69	57.7500
360.06	57.4000
360.42	57.5000
360.78	58.1000
361.14	57.0500
361.51	57.8500
361.87	57.8000
362.23	58.3500
362.60	58.2000
362.96	57.5000
363.32	57.5500
363.68	58.9000
364.05	58.8000
364.41	57.7000
364.77	58.2500
365.13	57.7000
365.50	57.6000
365.86	58.0000
366.22	59.0000
366.58	56.9000
366.95	57.7500
367.31	59.8000
367.67	58.3000
368.03	57.1500
368.39	58.3000
368.76	57.9500
369.12	58.2500
369.48	58.0000
369.84	58.6000
370.20	58.9000
370.57	58.7000
370.93	58.3500
371.29	58.1000
371.65	56.9500
372.01	58.5000
372.38	56.9500
372.74	58.1000
373.10	58.6000
373.46	57.4500
373.82	58.1500
374.18	58.9500
374.55	58.7500
374.91	58.7500
375.27	57.9500
375.63	58.6000
375.99	58.2000
376.35	58.1500
376.71	57.9500
377.08	57.7000
377.44	58.4000
377.80	58.1000
378.16	57.4500
378.52	58.4000
378.88	57.5500
379.24	57.0500
379.60	57.0000
379.97	58.0000
380.33	58.7000
380.69	57.0000
381.05	57.3500
381.41	58.4500
381.77	58.2000
382.13	57.7000
382.49	57.3000
382.85	57.6000
383.21	57.6500
383.57	58.1500
383.94	58.5500
384.30	58.5500
384.66	58.3000
385.02	58.3500
385.38	57.5500
385.74	56.9000
386.10	57.9000
386.46	57.3500
386.82	57.4500
387.18	57.9500
387.54	57.9000
387.90	57.4000
388.26	57.9500
388.62	57.6500
388.98	57.3000
389.34	58.5500
389.70	57.9000
390.06	57.8000
390.42	58.1500
390.78	57.7000
391.14	57.8000
391.50	57.1000
391.86	58.1500
392.22	57.7000
392.58	58.1500
392.94	58.8500
393.30	58.0000
393.66	58.1500
394.02	57.4500
394.38	57.5000
394.74	58.0000
395.10	57.6500
395.46	57.0000
395.82	57.2500
396.18	57.8500
396.54	57.7000
396.90	57.5000
397.26	58.6000
397.62	57.4500
397.98	57.8500
398.34	58.4500
398.70	57.2500
399.05	58.7000
399.41	57.0000
399.77	57.9000
400.13	57.4500
400.49	57.5000
400.85	58.0500
401.21	57.6500
401.57	57.5500
401.93	57.9000
402.29	56.5500
402.65	57.6000
403.00	58.0000
403.36	58.6000
403.72	58.7500
404.08	58.0500
404.44	58.2500
404.80	58.3000
405.16	57.8000
405.52	57.7500
405.87	58.2000
406.23	59.8000
406.59	58.3500
406.95	58.1500
407.31	57.5500
407.67	57.2500
408.03	57.2000
408.38	59.1500
408.74	59.0000
409.10	58.3500
409.46	57.4500
409.82	58.4000
410.17	58.3500
410.53	58.1500
410.89	57.4000
411.25	58.3500
411.61	57.2500
411.97	57.9500
412.32	58.6000
412.68	58.3500
413.04	57.5000
413.40	58.4000
413.75	59.6500
414.11	58.5000
414.47	58.0000
414.83	57.8500
415.19	57.0500
415.54	57.4000
415.90	58.1000
416.26	57.9500
416.62	58.8000
416.97	56.8000
417.33	57.2000
417.69	57.7000
418.05	58.3000
418.40	57.2000
418.76	58.0500
419.12	57.4500
419.48	57.8500
419.83	58.5500
420.19	57.5500
420.55	57.9000
420.90	58.3500
421.26	57.3500
421.62	58.4000
421.98	57.3500
422.33	57.5000
422.69	57.5000
423.05	57.5000
423.40	57.4500
423.76	57.4000
424.12	57.4000
424.47	58.2500
424.83	58.9000
425.19	58.8500
425.54	58.3500
425.90	58.5500
426.26	57.2500
426.61	57.3500
426.97	57.4500
427.33	59.1000
427.68	57.8000
428.04	57.9000
428.40	58.2500
428.75	57.8500
429.11	56.9000
429.47	57.9500
429.82	58.1000
430.18	57.6000
430.53	58.7500
430.89	58.1500
431.25	58.4000
431.60	58.0000
431.96	58.2500
432.31	58.7000
432.67	58.1000
433.03	57.8000
433.38	58.4000
433.74	59.2000
434.09	58.6500
434.45	59.1000
434.81	58.4000
435.16	59.4000
435.52	59.1500
435.87	58.2000
436.23	57.9500
436.58	58.8000
436.94	57.8500
437.30	57.6500
437.65	58.8500
438.01	58.4000
438.36	58.7000
438.72	57.8500
439.07	57.0000
439.43	57.5500
439.78	58.1500
440.14	58.3500
440.49	57.7000
440.85	58.0500
441.20	59.0500
441.56	58.2500
441.91	58.8500
442.27	58.7500
442.62	57.7000
442.98	57.2500
443.33	57.9500
443.69	58.4000
444.04	70.4000
444.40	59.0000
444.75	59.8500
445.11	57.7500
445.46	57.5500
445.82	58.6500
446.17	58.1500
446.53	57.4500
446.88	57.3500
447.23	57.8000
447.59	57.0000
447.94	57.9500
448.30	57.9000
448.65	58.7500
449.01	57.3000
449.36	57.8000
449.72	57.9500
450.07	57.7000
450.42	58.3500
450.78	58.3500
451.13	58.3000
451.49	58.2000
451.84	58.3000
452.19	58.4500
452.55	56.9000
452.90	58.7000
453.26	59.2000
453.61	58.7000
453.96	57.6500
454.32	58.4000
454.67	57.8500
455.02	58.1500
455.38	57.8500
455.73	58.7500
456.09	57.9000
456.44	57.7000
456.79	57.9000
457.15	57.4000
457.50	57.4500
457.85	58.6000
458.21	57.3000
458.56	58.1500
458.91	58.6500
459.27	58.9000
459.62	59.2000
459.97	59.0500
460.32	57.7000
460.68	58.9500
461.03	58.3500
461.38	58.4500
461.74	57.4000
462.09	57.4500
462.44	58.4500
462.80	57.4000
463.15	58.5000
463.50	59.1500
463.85	57.9000
464.21	58.1000
464.56	57.6000
464.91	59.2000
465.26	57.9000
465.62	56.9500
465.97	59.2000
466.32	60.0500
466.67	57.5000
467.03	58.6500
467.38	57.4000
467.73	58.5500
468.08	57.4000
468.44	58.2500
468.79	58.1000
469.14	58.3500
469.49	57.8500
469.85	58.3000
470.20	58.0500
470.55	57.9000
470.90	58.6000
471.25	58.2000
471.61	57.7500
471.96	58.5000
472.31	57.9500
472.66	58.2500
473.01	58.9500
473.36	57.2500
473.72	58.8000
474.07	57.8000
474.42	58.0500
474.77	56.6000
475.12	57.8500
475.47	57.3000
475.83	57.4000
476.18	57.3500
476.53	58.5500
476.88	57.9500
477.23	58.3500
477.58	57.6500
477.93	58.3500
478.28	58.4000
478.64	58.2000
478.99	57.4500
479.34	58.2000
479.69	59.1500
480.04	58.4500
480.39	58.2500
480.74	58.4500
481.09	58.3000
481.44	58.9500
481.79	58.3000
482.15	57.6500
482.50	57.8000
482.85	57.8500
483.20	57.5000
483.55	58.9500
483.90	58.5000
484.25	58.6000
484.60	57.5500
484.95	57.7000
485.30	58.1000
485.65	58.1500
486.00	58.1000
486.35	57.4500
486.70	58.7000
487.05	59.0000
487.40	57.6500
487.75	58.3000
488.10	58.1000
488.45	57.6500
488.80	57.4000
489.15	58.5000
489.50	57.1500
489.85	58.5000
490.20	58.4500
490.55	58.3500
490.90	57.8500
491.25	57.7500
491.60	59.2000
491.95	58.4500
492.30	58.9000
492.65	57.8500
493.00	58.6500
493.35	58.5000
493.70	58.1500
494.05	57.4000
494.40	57.4500
494.75	58.1500
495.10	56.6000
495.45	58.6500
495.80	57.6500
496.15	57.7500
496.50	58.2000
496.84	58.3500
497.19	58.8500
497.54	58.4500
497.89	57.4500
498.24	58.1500
498.59	58.6500
498.94	58.5000
499.29	57.1500
499.64	57.8000
499.99	58.0000
500.33	57.5000
500.68	58.9500
501.03	58.7000
501.38	57.5000
501.73	57.1000
502.08	57.5500
502.43	57.8500
502.77	58.3500
503.12	59.0000
503.47	57.7000
503.82	58.1000
504.17	57.9500
504.52	58.3000
504.86	57.9500
505.21	58.0500
505.56	60.1500
505.91	58.2500
506.26	57.7000
506.61	57.2000
506.95	57.9000
507.30	57.5000
507.65	58.2500
508.00	58.2500
508.35	56.6500
508.69	57.9500
509.04	58.5500
509.39	57.8500
509.74	59.2500
510.08	57.0500
510.43	57.9500
510.78	57.3500
511.13	57.2000
511.47	58.0000
511.82	58.4500
512.17	58.1500
512.52	57.4000
512.86	57.0000
513.21	58.0000
513.56	58.2000
513.91	58.8000
514.25	59.0000
514.60	58.3500
514.95	58.2500
515.30	58.8000
515.64	58.1000
515.99	58.6500
516.34	59.0000
516.68	58.4000
517.03	58.2500
517.38	57.4000
517.72	57.6000
518.07	58.4500
518.42	58.3000
518.76	58.7500
519.11	59.4000
519.46	58.3000
519.80	58.9500
520.15	59.4500
520.50	58.9500
520.84	58.4000
521.19	58.6000
521.54	58.6000
521.88	59.6500
522.23	57.6500
522.58	58.6000
522.92	58.5500
523.27	57.6500
523.61	58.7000
523.96	58.6500
524.31	59.1000
524.65	58.4000
525.00	59.0500
525.34	58.3500
525.69	58.3500
526.04	60.7500
526.38	58.5000
526.73	59.1500
527.07	59.1500
527.42	58.6500
527.76	58.9000
528.11	58.5000
528.46	59.7500
528.80	58.7000
529.15	58.9500
529.49	59.5500
529.84	59.4500
530.18	59.8000
530.53	60.1500
530.87	59.5000
531.22	59.9500
531.56	60.1000
531.91	60.2500
532.25	60.1500
532.60	60.7500
532.94	60.9000
533.29	60.2500
533.63	60.0000
533.98	60.1500
534.32	60.6500
534.67	59.6000
535.01	60.2000
535.36	60.6500
535.70	60.6000
536.05	61.6500
536.39	60.6000
536.74	61.7000
537.08	61.1500
537.43	61.6000
537.77	62.6000
538.12	61.6000
538.46	61.9500
538.80	60.9500
539.15	63.6500
539.49	63.0000
539.84	62.9500
540.18	63.0000
540.53	62.8500
540.87	62.3500
541.21	64.4500
541.56	63.6000
541.90	63.6000
542.25	64.4000
542.59	64.2000
542.93	63.8000
543.28	65.4000
543.62	65.5000
543.97	66.4000
544.31	65.7500
544.65	65.4000
545.00	66.1500
545.34	66.0500
545.68	65.9000
546.03	67.1000
546.37	66.9500
546.71	67.8500
547.06	67.5500
547.40	68.5500
547.74	69.6000
548.09	69.5500
548.43	68.3000
548.77	69.5500
549.12	68.6500
549.46	69.8500
549.80	70.6500
550.15	70.6500
550.49	71.5500
550.83	72.2000
551.17	72.2000
551.52	71.8500
551.86	73.4500
552.20	73.0500
552.55	73.5500
552.89	74.6000
553.23	74.7500
553.57	75.9000
553.92	75.3000
554.26	77.0500
554.60	77.0000
554.94	78.4500
555.29	77.6500
555.63	78.9500
555.97	79.4000
556.31	79.2000
556.66	79.4000
557.00	79.3000
557.34	80.8500
557.68	81.8000
558.02	81.1000
558.37	82.3000
558.71	83.7000
559.05	84.4500
559.39	85.6500
559.73	86.7500
560.08	86.6000
560.42	87.3500
560.76	88.3000
561.10	87.4500
561.44	89.2000
561.78	89.2000
562.13	89.8500
562.47	91.3000
562.81	92.8500
563.15	92.9500
563.49	93.6000
563.83	95.4000
564.17	95.7000
564.52	94.9000
564.86	95.6500
565.20	96.7000
565.54	99.2000
565.88	100.1000
566.22	101.2000
566.56	102.7000
566.90	103.6500
567.24	105.6000
567.59	107.3500
567.93	109.1000
568.27	112.1500
568.61	114.1500
568.95	116.2000
569.29	117.9500
569.63	120.8500
569.97	124.0500
570.31	125.0500
570.65	129.3000
570.99	129.6500
571.33	131.6000
571.67	130.2500
572.01	134.2000
572.35	136.9000
572.69	142.9000
573.03	142.2000
573.37	145.5500
573.71	148.8000
574.05	149.6000
574.39	149.0000
574.73	151.1000
575.07	149.8000
575.41	154.4500
575.75	155.6500
576.09	160.9500
576.43	168.7000
576.77	176.3000
577.11	177.0500
577.45	176.5500
577.79	172.2000
578.13	173.1500
578.47	172.8000
578.81	172.8500
579.15	176.8500
579.49	180.6500
579.83	189.8000
580.17	202.6000
580.51	213.7000
580.85	220.0500
581.19	214.7000
581.53	206.5500
581.87	199.5000
582.20	190.9500
582.54	187.1500
582.88	189.9500
583.22	192.4000
583.56	201.7000
583.90	213.2500
584.24	220.4500
584.58	221.7000
584.92	218.7500
585.25	216.5000
585.59	213.0500
585.93	218.9500
586.27	224.2500
586.61	224.7000
586.95	227.4000
587.29	225.5000
587.62	224.5500
587.96	221.7500
588.30	220.1500
588.64	219.6000
588.98	222.0000
589.31	222.4000
589.65	220.4000
589.99	219.6000
590.33	223.7500
590.67	223.2500
591.01	230.0500
591.34	238.4500
591.68	254.5500
592.02	265.9500
592.36	268.5000
592.69	266.3500
593.03	263.4000
593.37	263.4500
593.71	265.4000
594.04	270.3500
594.38	272.4000
594.72	272.8000
595.06	270.0000
595.39	268.9500
595.73	267.5000
596.07	276.4500
596.41	279.2500
596.74	292.5500
597.08	284.1500
597.42	291.5000
597.76	300.6000
598.09	310.0000
598.43	312.9000
598.77	314.8500
599.10	320.5500
599.44	322.7500
599.78	326.0000
600.11	327.4000
600.45	330.7000
600.79	326.8000
601.12	326.6000
601.46	331.7000
601.80	339.2000
602.13	342.8500
602.47	352.1500
602.81	355.0000
603.14	350.2000
603.48	349.6500
603.82	348.9000
604.15	349.3000
604.49	360.8500
604.82	362.8000
605.16	365.0000
605.50	364.6000
605.83	371.2500
606.17	373.9000
606.50	383.6500
606.84	381.6500
607.18	385.6000
607.51	378.7500
607.85	383.2500
608.18	380.4500
608.52	387.4500
608.86	396.5500
609.19	403.6500
609.53	403.4500
609.86	406.5000
610.20	407.3000
610.53	407.1000
610.87	404.4500
611.20	415.3500
611.54	408.7000
611.87	413.1000
612.21	419.5500
612.54	417.6000
612.88	419.6000
613.21	428.3500
613.55	435.6500
613.88	439.5500
614.22	452.8500
614.55	447.6500
614.89	447.5500
615.22	444.5000
615.56	441.3500
615.89	444.8500
616.23	443.0000
616.56	440.4500
616.90	446.3000
617.23	444.4000
617.57	449.9000
617.90	445.4000
618.24	446.4000
618.57	456.2500
618.90	460.5000
619.24	463.8500
619.57	457.4500
619.91	457.5500
620.24	445.9000
620.58	456.0000
620.91	467.8000
621.24	473.4500
621.58	482.9000
621.91	487.9000
622.25	491.9500
622.58	492.1500
622.91	494.8000
623.25	494.4500
623.58	497.3000
623.91	492.9500
624.25	496.5500
624.58	495.0000
624.92	496.3500
625.25	495.4500
625.58	492.0000
625.92	503.4000
626.25	502.2500
626.58	512.4500
626.92	506.7500
627.25	505.8500
627.58	502.2500
627.91	511.7000
628.25	518.1000
628.58	519.7500
628.91	519.7000
629.25	522.4500
629.58	522.0500
629.91	523.0000
630.25	523.1500
630.58	521.4000
630.91	519.6500
631.24	519.1000
631.58	521.6000
631.91	520.8000
632.24	516.8500
632.57	523.2500
632.91	526.8500
633.24	522.3000
633.57	526.0500
633.90	525.9000
634.24	530.0000
634.57	536.7000
634.90	542.6000
635.23	541.5500
635.56	551.7500
635.90	551.7500
636.23	554.1000
636.56	554.4000
636.89	561.8000
637.22	560.9000
637.56	561.5500
637.89	557.5500
638.22	563.8000
638.55	563.6500
638.88	554.4500
639.21	566.8500
639.55	566.7000
639.88	565.6000
640.21	565.5500
640.54	565.4500
640.87	562.0000
641.20	570.9000
641.53	575.3500
641.87	572.5500
642.20	577.2500
642.53	577.2500
642.86	579.8000
643.19	579.3000
643.52	581.3500
643.85	583.1000
644.18	583.7500
644.51	585.1000
644.84	586.6500
645.18	587.6500
645.51	588.0500
645.84	588.6000
646.17	590.0500
646.50	593.3000
646.83	608.9500
647.16	608.2000
647.49	624.2500
647.82	628.7000
648.15	637.5000
648.48	640.7000
648.81	639.7500
649.14	633.2500
649.47	634.6000
649.80	628.8000
650.13	628.4500
650.46	637.5000
650.79	639.1500
651.12	647.9000
651.45	647.8500
651.78	646.5000
652.11	652.0500
652.44	651.7500
652.77	652.5500
653.10	652.2000
653.43	654.4500
653.76	658.7500
654.09	682.8500
654.42	1081.1000
654.75	1931.1500
655.08	2462.3999
655.41	2664.5000
655.74	2157.3999
656.07	1686.6500
656.39	1376.8500
656.72	1149.2000
657.05	953.5000
657.38	817.7000
657.71	737.1000
658.04	703.8000
658.37	689.7000
658.70	680.1000
659.03	674.4000
659.36	673.8500
659.68	672.5500
660.01	672.1000
660.34	677.0500
660.67	676.4500
661.00	681.9000
661.33	675.7000
661.66	676.4500
661.98	678.7500
662.31	681.0500
662.64	677.2500
662.97	681.3500
663.30	682.1000
663.63	689.5000
663.95	689.3500
664.28	690.3500
664.61	696.5500
664.94	699.1000
665.27	701.9000
665.59	692.2000
665.92	697.9500
666.25	695.7500
666.58	684.7500
666.91	703.6000
667.23	697.6000
667.56	695.2500
667.89	697.7500
668.22	702.1000
668.54	704.2000
668.87	711.0000
669.20	706.0500
669.53	709.8500
669.85	708.7500
670.18	710.3000
670.51	720.0500
670.83	731.1000
671.16	749.6500
671.49	753.1500
671.82	746.9000
672.14	735.9500
672.47	732.9000
672.80	728.7500
673.12	725.5000
673.45	726.8000
673.78	716.0000
674.10	723.7000
674.43	717.4000
674.76	719.6000
675.08	725.0000
675.41	721.5500
675.74	722.9500
676.06	724.8500
676.39	722.7500
676.72	728.5000
677.04	735.4000
677.37	746.1000
677.69	736.3000
678.02	734.6000
678.35	741.5500
678.67	742.1500
679.00	757.0500
679.32	759.9000
679.65	742.0000
679.98	742.6000
680.30	740.1000
680.63	741.9000
680.95	743.5500
681.28	740.7500
681.60	725.6500
681.93	724.5500
682.26	725.9000
682.58	730.0500
682.91	730.0500
683.23	733.4500
683.56	742.3000
683.88	754.9500
684.21	764.2500
684.53	775.5000
684.86	780.3500
685.18	773.3000
685.51	770.5500
685.83	758.1000
686.16	747.2000
686.48	749.3500
686.81	746.6000
687.13	742.6500
687.46	734.6500
687.78	736.9500
688.11	724.6500
688.43	725.2000
688.76	726.0000
689.08	725.9500
689.41	726.4500
689.73	724.7500
690.05	730.0000
690.38	738.0500
690.70	740.6500
691.03	738.2500
691.35	738.1500
691.68	727.9500
692.00	734.6500
692.32	737.1500
692.65	734.8000
692.97	734.7000
693.29	721.1000
693.62	709.5000
693.94	713.9000
694.27	713.5000
694.59	702.4500
694.91	710.9000
695.24	704.9500
695.56	696.4000
695.88	710.8000
696.21	716.0500
696.53	727.3500
696.85	736.8500
697.18	729.3500
697.50	720.7000
697.82	719.0000
698.15	713.1500
698.47	706.2000
698.79	702.2500
699.12	701.9000
699.44	682.3000
699.76	682.6000
700.09	684.0000
700.41	683.3500
700.73	678.2500
701.05	691.3500
701.38	689.8000
701.70	694.4000
702.02	699.7500
702.34	696.2500
702.67	697.6000
702.99	689.7500
703.31	690.2500
703.63	691.8500
703.96	682.6500
704.28	679.0500
704.60	668.6000
704.92	677.5000
705.25	679.6500
705.57	690.1000
705.89	706.4000
706.21	719.3500
706.53	727.4000
706.86	728.7000
707.18	727.3000
707.50	727.1000
707.82	711.8500
708.14	715.5000
708.46	714.4000
708.79	696.3000
709.11	701.0000
709.43	691.5000
709.75	697.9000
710.07	694.8500
710.39	699.7000
710.71	688.7500
711.04	683.9000
711.36	679.5500
711.68	681.1500
712.00	681.4000
712.32	689.7500
712.64	684.9000
712.96	688.4000
713.28	689.1500
713.60	695.0500
713.92	687.3500
714.24	687.5000
714.57	685.5500
714.89	681.6000
715.21	671.5000
715.53	661.4500
715.85	652.5500
716.17	651.5000
716.49	649.2500
716.81	651.6500
717.13	659.2000
717.45	660.5000
717.77	661.5000
718.09	665.5000
718.41	668.5500
718.73	661.7000
719.05	657.8500
719.37	643.2500
719.69	648.2500
720.01	653.5000
720.33	652.4500
720.65	649.2000
720.97	646.0500
721.29	645.7000
721.61	647.3000
721.93	646.2000
722.25	638.6500
722.57	634.8500
722.89	634.6000
723.21	637.1500
723.52	638.5500
723.84	630.8500
724.16	638.1500
724.48	641.6000
724.80	651.4000
725.12	649.8000
725.44	651.1000
725.76	643.3000
726.08	642.4000
726.40	635.1000
726.72	636.8500
727.03	638.5000
727.35	639.1500
727.67	633.9500
727.99	630.0000
728.31	630.5500
728.63	632.5000
728.95	638.1000
729.26	631.7000
729.58	633.2500
729.90	646.1500
730.22	638.4000
730.54	650.4000
730.86	654.7500
731.17	654.0500
731.49	644.3000
731.81	635.5500
732.13	638.6500
732.45	625.2000
732.76	628.2500
733.08	630.5500
733.40	639.5000
733.72	640.1000
734.03	635.7000
734.35	633.6000
734.67	626.6000
734.99	619.6500
735.30	622.6000
735.62	619.1000
735.94	619.3000
736.26	617.6000
736.57	606.4500
736.89	611.4500
737.21	594.7500
737.53	584.8500
737.84	585.4000
738.16	591.9000
738.48	602.2000
738.79	612.6500
739.11	609.7500
739.43	596.7000
739.74	592.0000
740.06	578.8000
740.38	566.2500
740.69	560.4500
741.01	557.7000
741.33	554.7500
741.64	557.1000
741.96	558.3000
742.28	551.3000
742.59	546.8500
742.91	544.5000
743.23	535.3500
743.54	539.7500
743.86	535.8000
744.17	528.3000
744.49	529.5500
744.81	526.9000
745.12	525.4500
745.44	521.7500
745.75	525.3500
746.07	520.5500
746.38	520.6000
746.70	518.3500
747.02	523.8500
747.33	513.0500
747.65	510.2500
747.96	511.8500
748.28	510.1000
748.59	514.7500
748.91	518.0000
749.22	523.4500
749.54	524.5000
749.85	530.9500
750.17	524.2500
750.48	521.0500
750.80	519.0500
751.11	514.4000
751.43	518.1000
751.74	513.2000
752.06	509.3500
752.37	506.5000
752.69	510.9500
753.00	518.2000
753.32	518.2500
753.63	518.5000
753.95	511.1500
754.26	506.4500
754.58	510.1500
754.89	511.4500
755.20	518.5500
755.52	523.5500
755.83	531.5500
756.15	542.3500
756.46	543.9500
756.78	549.3500
757.09	555.0000
757.40	558.8000
757.72	542.7000
758.03	531.0000
758.34	525.1500
758.66	531.1500
758.97	532.4500
759.29	533.6500
759.60	536.7500
759.91	532.8000
760.23	539.4000
760.54	537.2500
760.85	527.4000
761.17	513.7000
761.48	503.7000
761.79	492.8000
762.11	495.8500
762.42	500.1000
762.73	506.9000
763.05	509.9500
763.36	514.6500
763.67	517.9000
763.98	523.0000
764.30	520.1000
764.61	525.1500
764.92	514.7000
765.23	503.8000
765.55	488.1500
765.86	475.7500
766.17	470.9000
766.48	464.0000
766.80	455.8000
767.11	464.0000
767.42	465.6000
767.73	476.0500
768.05	489.0000
768.36	499.6500
768.67	495.8500
768.98	481.6000
769.29	477.7500
769.61	475.1500
769.92	466.3500
770.23	473.2000
770.54	464.1500
770.85	473.4500
771.17	460.1000
771.48	455.2500
771.79	456.5500
772.10	445.6500
772.41	448.9000
772.72	443.4000
773.03	437.9500
773.35	435.9000
773.66	425.8000
773.97	428.5500
774.28	421.0000
774.59	417.6000
774.90	419.8000
775.21	418.8500
775.52	413.7000
775.83	414.6500
776.15	409.2000
776.46	409.3000
776.77	406.5500
777.08	405.6500
777.39	412.1500
777.70	406.6000
778.01	411.9000
778.32	419.0000
778.63	421.8000
778.94	419.7500
779.25	413.2500
779.56	405.2500
779.87	402.7000
780.18	400.8500
780.49	410.6000
780.80	421.7500
781.11	420.6500
781.42	411.7500
781.73	407.6500
782.04	397.4500
782.35	397.1500
782.66	396.0500
782.97	393.8000
783.28	397.9000
783.59	388.6000
783.90	382.7500
784.21	376.2500
784.52	378.3500
784.83	377.1500
785.14	380.3000
785.45	379.0500
785.76	374.0500
786.06	373.4500
786.37	372.3500
786.68	371.7000
786.99	371.8000
787.30	367.7000
787.61	373.5000
787.92	373.7000
788.23	371.9500
788.54	372.1500
788.84	363.8000
789.15	362.5000
789.46	354.6500
789.77	348.2000
790.08	346.4000
790.39	343.8500
790.70	348.1500
791.00	347.8500
791.31	340.9000
791.62	338.9000
791.93	333.0500
792.24	336.6000
792.54	329.6500
792.85	331.3500
793.16	345.1500
793.47	354.3500
793.78	363.3000
794.08	362.2500
794.39	352.4500
794.70	345.7500
795.01	339.0500
795.31	330.0000
795.62	318.8500
795.93	317.8500
796.24	315.5500
796.54	312.1500
796.85	318.2000
797.16	313.1500
797.47	313.6000
797.77	308.1500
798.08	308.3500
798.39	306.0500
798.69	305.5500
799.00	301.8500
799.31	302.8500
799.62	299.3000
799.92	298.5000
800.23	297.1000
800.54	296.8000
800.84	295.4000
801.15	292.8500
801.46	291.0000
801.76	288.3000
802.07	281.6000
802.37	283.1000
802.68	283.9500
802.99	286.7000
803.29	283.1000
803.60	278.9000
803.91	277.2000
804.21	279.6000
804.52	278.3000
804.82	275.7500
805.13	280.4000
805.44	283.3000
805.74	287.2000
806.05	290.2500
806.35	284.3000
806.66	280.7000
806.96	278.1500
807.27	272.3000
807.57	271.0000
807.88	269.1000
808.19	268.6500
808.49	267.1000
808.80	263.4000
809.10	261.9500
809.41	260.1500
809.71	256.4500
810.02	255.1000
810.32	254.9500
810.63	256.2000
810.93	257.4000
811.24	252.8000
811.54	252.7500
811.85	249.9500
812.15	246.1000
812.45	245.0500
812.76	245.3000
813.06	248.2000
813.37	251.2000
813.67	255.2000
813.98	248.3500
814.28	241.5000
814.58	242.1000
814.89	237.7000
815.19	237.9000
815.50	235.9000
815.80	235.5000
816.11	236.8000
816.41	237.0000
816.71	238.3000
817.02	234.5000
817.32	233.4500
817.62	229.3500
817.93	227.6500
818.23	226.2500
818.53	225.4500
818.84	227.4500
819.14	224.9000
819.44	224.6500
819.75	225.7500
820.05	226.6000
820.35	229.0000
820.66	228.5000
820.96	226.8500
821.26	224.0000
821.57	221.0500
821.87	218.9000
822.17	217.9500
822.48	218.1000
822.78	217.2500
823.08	213.8500
823.38	213.9500
823.69	210.4000
823.99	212.4500
824.29	210.1000
824.59	207.7500
824.90	210.5000
825.20	209.1500
825.50	210.2500
825.80	208.0500
826.10	209.5500
826.41	208.7500
826.71	211.4000
827.01	208.5500
827.31	211.4000
827.61	209.3500
827.92	206.9500
828.22	203.5000
828.52	202.0500
828.82	202.0500
829.12	198.5500
829.42	202.0000
829.73	196.6500
830.03	196.1000
830.33	192.9000
830.63	190.4500
830.93	190.5000
831.23	187.0000
831.53	188.6000
831.83	185.5500
832.14	186.8500
832.44	188.9000
832.74	186.9000
833.04	186.1500
833.34	188.8000
833.64	188.1000
833.94	184.0500
834.24	188.0000
834.54	186.9000
834.84	183.8500
835.14	183.7000
835.44	182.0000
835.74	181.4500
836.04	178.3500
836.34	178.5000
836.64	177.9500
836.95	176.1000
837.25	175.0000
837.55	176.0000
837.85	173.8000
838.15	173.6000
838.45	172.2500
838.74	172.7000
839.04	168.4000
839.34	170.5000
839.64	171.8000
839.94	168.2000
840.24	167.6000
840.54	170.3500
840.84	170.6000
841.14	168.8500
841.44	170.3500
841.74	167.0000
842.04	166.9500
842.34	164.9500
842.64	163.5000
842.94	164.5000
843.24	163.5000
843.53	163.4500
843.83	162.7000
844.13	160.7500
844.43	158.4000
844.73	160.4500
845.03	158.7000
845.33	156.5500
845.63	158.2000
845.92	155.2500
846.22	155.0500
846.52	155.7500
846.82	155.0500
847.12	152.7500
847.42	153.4000
847.71	153.9000
848.01	153.0500
848.31	151.6000
848.61	151.1500
848.91	150.6500
849.20	151.0500
849.50	149.3500
849.80	149.1000
850.10	147.4000
850.39	147.6500
850.69	147.1500
850.99	146.4000
851.29	146.0500
851.59	146.4000
851.88	145.6000
852.18	144.9000
852.48	147.3000
852.77	147.4000
853.07	150.3000
853.37	148.1500
853.67	148.4500
853.96	148.0500
854.26	145.8000
854.56	145.8500
854.85	144.2500
855.15	144.2000
855.45	142.3000
855.74	141.0500
856.04	139.8000
856.34	141.7500
856.63	141.5500
856.93	139.3500
857.23	138.6000
857.52	136.3000
857.82	135.8000
858.11	136.6500
858.41	134.1500
858.71	135.4500
859.00	133.9000
859.30	133.9000
859.59	131.9000
859.89	132.0000
860.19	131.4000
860.48	130.0500
860.78	131.8000
861.07	131.6000
861.37	129.0500
861.66	130.3000
861.96	128.4500
862.26	127.0500
862.55	127.2000
862.85	126.8500
863.14	128.0500
863.44	126.7500
863.73	126.4000
864.03	124.5000
864.32	124.7500
864.62	124.1500
864.91	121.5500
865.21	122.2000
865.50	120.5000
865.80	123.3000
866.09	122.0000
866.39	122.5000
866.68	121.8500
866.97	120.4000
867.27	121.4500
867.56	119.9500
867.86	120.7500
868.15	118.6000
868.45	116.8500
868.74	117.4000
869.03	117.6500
869.33	117.4500
869.62	116.1500
869.92	114.9500
870.21	114.4500
870.50	115.6000
870.80	114.9000
871.09	114.4500
871.39	113.4500
871.68	114.3000
871.97	113.0000
872.27	112.3500
872.56	109.6000
872.85	111.2500
873.15	110.0500
873.44	110.6000
873.73	110.3000
874.03	109.9500
874.32	108.5000
874.61	109.0000
874.90	108.4500
875.20	107.9000
875.49	107.0500
875.78	106.8000
>>>>>End Spectral Data<<<<<
