OOIBase32 Version 1.0.0.8 Data File
++++++++++++++++++++++++++++++++++++
Date: Monday, January 21, 1980, 09:26:39
User: Valued Ocean Optics Customer
Spectrometer Serial Number: Unknown
Spectrometer Channel: Master
Integration Time (msec): 20
Spectra Averaged: 20
Boxcar Smoothing: 0
Correct for Electrical Dark: Disabled
Time Normalized: Disabled
Dual-beam Reference: Disabled
Reference Channel: Master
>>>>>Begin Spectral Data<<<<<
179.00	0.0000
179.38	0.0000
179.75	54.5000
180.13	55.0000
180.51	55.8500
180.88	57.3500
181.26	56.7500
181.64	57.2000
182.02	56.4500
182.39	56.7000
182.77	55.7000
183.15	56.4000
183.52	56.0500
183.90	57.2000
184.28	56.5000
184.65	57.2500
185.03	55.2000
185.41	57.0500
185.78	55.3500
186.16	56.6000
186.53	56.4500
186.91	56.5500
187.29	56.6500
187.66	56.7500
188.04	56.4000
188.42	57.4000
188.79	56.6500
189.17	58.3000
189.55	57.9500
189.92	57.5000
190.30	57.8500
190.67	56.7000
191.05	56.8500
191.43	56.7500
191.80	57.1500
192.18	57.0000
192.56	57.4500
192.93	56.3500
193.31	57.8000
193.68	56.4500
194.06	56.9000
194.44	57.8500
194.81	56.6000
195.19	57.1000
195.56	57.4000
195.94	57.0000
196.32	57.2000
196.69	58.0500
197.07	56.8500
197.44	57.4000
197.82	57.7000
198.19	57.5500
198.57	57.5000
198.95	57.0000
199.32	57.0000
199.70	57.1000
200.07	57.1500
200.45	56.0000
200.82	56.4500
201.20	57.4000
201.57	56.6000
201.95	57.5500
202.33	58.6500
202.70	58.0500
203.08	57.9000
203.45	57.6500
203.83	57.2000
204.20	58.7500
204.58	58.0500
204.95	56.8500
205.33	57.5000
205.70	58.5500
206.08	57.2000
206.45	57.2500
206.83	57.4000
207.20	57.7000
207.58	57.3000
207.95	57.2000
208.33	57.0500
208.70	58.4000
209.08	56.3000
209.45	57.1000
209.83	58.2000
210.20	58.0500
210.58	56.7500
210.95	58.1000
211.33	56.6000
211.70	57.1500
212.08	58.2000
212.45	58.3000
212.83	57.1000
213.20	57.5000
213.58	57.4500
213.95	58.5500
214.33	57.5500
214.70	57.5500
215.07	58.1500
215.45	57.9500
215.82	57.7000
216.20	56.8500
216.57	57.8000
216.95	57.3500
217.32	59.0000
217.70	57.3000
218.07	57.8000
218.44	58.3500
218.82	57.6000
219.19	57.3500
219.57	57.7500
219.94	58.7000
220.32	57.7500
220.69	57.7000
221.06	57.2000
221.44	57.9500
221.81	58.3500
222.19	58.2000
222.56	57.5500
222.93	58.1000
223.31	57.7500
223.68	58.0000
224.06	57.6000
224.43	57.8500
224.80	57.3000
225.18	57.3000
225.55	57.4500
225.92	59.0000
226.30	57.3000
226.67	57.1500
227.05	56.8500
227.42	57.1500
227.79	58.0500
228.17	57.7000
228.54	57.2500
228.91	57.3500
229.29	57.9500
229.66	58.3000
230.03	57.6500
230.41	57.5500
230.78	58.1500
231.15	58.4000
231.53	57.3000
231.90	57.3500
232.27	58.8000
232.65	57.3500
233.02	56.9000
233.39	58.0500
233.77	56.9500
234.14	57.3500
234.51	57.9500
234.89	58.0500
235.26	57.5000
235.63	56.9500
236.01	57.6500
236.38	58.3500
236.75	57.3500
237.12	57.7000
237.50	57.5000
237.87	58.4500
238.24	57.4500
238.62	59.4500
238.99	58.1000
239.36	57.7500
239.73	57.8500
240.11	58.1500
240.48	57.8000
240.85	56.9000
241.23	56.8500
241.60	56.8500
241.97	57.3500
242.34	58.1000
242.72	58.8000
243.09	58.2000
243.46	58.0500
243.83	57.3500
244.21	58.3000
244.58	58.0500
244.95	57.8500
245.32	57.9000
245.70	57.1500
246.07	57.1000
246.44	58.1000
246.81	57.5000
247.18	56.7500
247.56	59.3000
247.93	56.7500
248.30	57.7000
248.67	58.3000
249.04	58.7000
249.42	57.6500
249.79	58.1000
250.16	57.5000
250.53	57.9000
250.90	58.0000
251.28	57.9500
251.65	56.9000
252.02	57.1000
252.39	58.5500
252.76	58.3000
253.14	57.9000
253.51	57.5500
253.88	55.7000
254.25	57.1000
254.62	56.8500
254.99	57.2500
255.37	59.0500
255.74	58.4500
256.11	58.2000
256.48	57.9000
256.85	57.5000
257.22	57.5500
257.59	57.4500
257.97	58.6500
258.34	58.4000
258.71	57.3000
259.08	57.4500
259.45	57.5000
259.82	58.6500
260.19	57.7500
260.56	58.0000
260.94	57.9500
261.31	58.2000
261.68	57.9000
262.05	58.1500
262.42	57.7000
262.79	56.6000
263.16	57.6000
263.53	57.6000
263.90	57.7500
264.28	57.1500
264.65	57.0500
265.02	57.4500
265.39	57.7500
265.76	58.4000
266.13	58.4000
266.50	58.4000
266.87	57.9000
267.24	57.0500
267.61	57.2000
267.98	57.4000
268.35	57.4000
268.72	57.3000
269.09	57.7000
269.46	56.7500
269.84	57.5000
270.21	57.6000
270.58	58.0000
270.95	57.0000
271.32	57.0500
271.69	58.4000
272.06	58.0000
272.43	57.8000
272.80	57.7500
273.17	58.2500
273.54	57.4000
273.91	57.3500
274.28	57.8500
274.65	56.7000
275.02	57.0000
275.39	57.7000
275.76	56.6500
276.13	57.3500
276.50	59.0500
276.87	57.8500
277.24	57.1500
277.61	58.3000
277.98	58.4500
278.35	57.9500
278.72	58.9000
279.09	58.9500
279.46	58.0500
279.83	57.6000
280.20	57.3500
280.57	58.1000
280.94	57.8500
281.31	57.5000
281.67	57.7500
282.04	57.0000
282.41	57.5500
282.78	57.4500
283.15	57.8500
283.52	57.9000
283.89	59.5500
284.26	57.5500
284.63	57.1000
285.00	57.3500
285.37	57.7500
285.74	57.6000
286.11	57.7500
286.48	58.5000
286.85	58.3000
287.21	56.8500
287.58	57.8000
287.95	57.9500
288.32	58.8000
288.69	56.5500
289.06	57.8000
289.43	58.0500
289.80	58.4500
290.17	57.8000
290.54	57.6500
290.90	56.8500
291.27	59.2500
291.64	57.6500
292.01	58.6000
292.38	58.5000
292.75	58.5000
293.12	56.6500
293.48	56.7000
293.85	56.7000
294.22	58.2500
294.59	57.5000
294.96	57.6000
295.33	57.9000
295.70	58.4000
296.06	58.2500
296.43	57.7000
296.80	57.0500
297.17	58.4000
297.54	57.7000
297.91	58.4500
298.27	57.3500
298.64	58.1000
299.01	58.6500
299.38	59.5000
299.75	57.1000
300.11	58.1000
300.48	56.8500
300.85	56.9500
301.22	57.3500
301.59	57.3000
301.95	58.3000
302.32	57.9500
302.69	57.7000
303.06	58.1000
303.43	57.2500
303.79	57.2500
304.16	57.3000
304.53	58.5500
304.90	57.9000
305.26	57.0500
305.63	57.4000
306.00	57.1500
306.37	57.2000
306.73	57.6500
307.10	57.1000
307.47	58.4500
307.84	57.2500
308.20	58.7000
308.57	58.3500
308.94	57.9500
309.31	58.5500
309.67	58.1000
310.04	57.7000
310.41	56.8500
310.77	59.1000
311.14	59.1000
311.51	57.8000
311.88	58.7500
312.24	58.0000
312.61	58.1000
312.98	57.3500
313.34	57.4500
313.71	58.3500
314.08	56.9000
314.44	57.3000
314.81	58.3500
315.18	57.4000
315.55	58.3500
315.91	56.8500
316.28	58.1000
316.65	58.5000
317.01	57.3500
317.38	57.4500
317.75	59.3500
318.11	58.3000
318.48	57.2000
318.84	57.5500
319.21	58.1000
319.58	57.3500
319.94	57.5500
320.31	57.6000
320.68	58.3000
321.04	56.3000
321.41	57.4500
321.78	57.3000
322.14	57.3000
322.51	57.8000
322.87	58.0500
323.24	57.9000
323.61	57.6500
323.97	57.6500
324.34	57.0000
324.70	57.6500
325.07	57.1500
325.44	57.3500
325.80	58.3000
326.17	58.9000
326.53	58.4500
326.90	56.9000
327.27	55.7000
327.63	58.3000
328.00	58.2000
328.36	57.3500
328.73	58.0000
329.09	57.1000
329.46	58.4500
329.83	57.6500
330.19	58.0500
330.56	58.7500
330.92	58.1000
331.29	57.5000
331.65	56.8000
332.02	58.1500
332.38	57.5500
332.75	58.0500
333.11	57.7500
333.48	57.9500
333.84	57.8500
334.21	58.6500
334.58	59.0000
334.94	56.8500
335.31	58.3000
335.67	58.1000
336.04	58.5000
336.40	58.1500
336.77	57.1000
337.13	56.8000
337.50	57.1000
337.86	57.9500
338.22	58.0000
338.59	59.3000
338.95	57.8500
339.32	57.5500
339.68	57.3500
340.05	57.9500
340.41	57.5000
340.78	57.2500
341.14	58.8000
341.51	57.9000
341.87	57.8500
342.24	57.5000
342.60	57.7500
342.96	57.7500
343.33	57.1000
343.69	57.1500
344.06	58.6000
344.42	57.4500
344.79	58.3000
345.15	57.7000
345.51	57.9000
345.88	57.3000
346.24	57.6000
346.61	57.7500
346.97	57.3500
347.34	57.9500
347.70	56.8500
348.06	58.2000
348.43	57.9500
348.79	58.2500
349.16	57.7000
349.52	57.7500
349.88	57.9000
350.25	56.8500
350.61	58.3000
350.97	57.9000
351.34	57.4500
351.70	56.9500
352.07	57.2000
352.43	57.7500
352.79	58.6500
353.16	58.0000
353.52	57.6000
353.88	58.0000
354.25	57.4500
354.61	57.3500
354.97	56.3500
355.34	57.2000
355.70	57.5500
356.06	57.3500
356.43	56.4500
356.79	58.5500
357.15	57.2000
357.52	57.8000
357.88	57.6500
358.24	57.2500
358.60	57.4500
358.97	58.2500
359.33	58.2000
359.69	57.6500
360.06	57.9000
360.42	58.0500
360.78	56.6000
361.14	56.7000
361.51	58.3500
361.87	57.9500
362.23	57.8000
362.60	57.5500
362.96	58.1000
363.32	57.6000
363.68	57.6500
364.05	58.0000
364.41	57.5500
364.77	57.5500
365.13	57.3500
365.50	57.9500
365.86	58.4500
366.22	57.9500
366.58	57.2000
366.95	57.0500
367.31	59.6000
367.67	57.8000
368.03	57.5000
368.39	57.0000
368.76	57.7500
369.12	57.2000
369.48	56.7500
369.84	57.1000
370.20	57.6500
370.57	57.5000
370.93	57.6000
371.29	58.5000
371.65	58.4000
372.01	57.4500
372.38	57.2500
372.74	57.7000
373.10	59.1000
373.46	56.8500
373.82	57.3500
374.18	58.2500
374.55	58.0000
374.91	58.8500
375.27	58.2500
375.63	58.5500
375.99	57.6000
376.35	57.1500
376.71	58.4000
377.08	58.5000
377.44	57.1500
377.80	57.5500
378.16	57.4000
378.52	57.6500
378.88	58.5500
379.24	56.8000
379.60	57.8000
379.97	57.6500
380.33	57.2000
380.69	57.6500
381.05	56.6500
381.41	58.6500
381.77	57.8500
382.13	57.6500
382.49	57.0000
382.85	57.7500
383.21	57.5000
383.57	57.9000
383.94	57.7500
384.30	57.0500
384.66	58.0500
385.02	59.0000
385.38	56.9000
385.74	57.2000
386.10	58.0000
386.46	57.3000
386.82	58.0000
387.18	57.8000
387.54	57.6000
387.90	57.9500
388.26	58.6500
388.62	58.3500
388.98	57.7500
389.34	58.1500
389.70	57.5500
390.06	57.4500
390.42	57.5500
390.78	57.5000
391.14	58.4500
391.50	57.9500
391.86	58.3000
392.22	58.0500
392.58	58.4000
392.94	58.4500
393.30	56.9500
393.66	58.3000
394.02	58.0000
394.38	57.4500
394.74	57.5000
395.10	57.7000
395.46	56.9500
395.82	56.7500
396.18	57.4000
396.54	56.4500
396.90	58.3500
397.26	57.4500
397.62	57.0000
397.98	58.6500
398.34	57.6000
398.70	57.1000
399.05	58.6000
399.41	57.8000
399.77	57.6000
400.13	57.2000
400.49	57.7000
400.85	57.7500
401.21	57.1500
401.57	57.2500
401.93	57.6000
402.29	57.7000
402.65	57.7000
403.00	57.4500
403.36	58.6000
403.72	57.8500
404.08	57.6500
404.44	57.7000
404.80	58.7500
405.16	57.5000
405.52	56.1500
405.87	58.9500
406.23	58.5000
406.59	57.8500
406.95	56.3000
407.31	57.3500
407.67	57.7500
408.03	57.3000
408.38	57.6500
408.74	56.3500
409.10	58.2000
409.46	58.6500
409.82	57.5500
410.17	58.0500
410.53	57.4500
410.89	57.9000
411.25	57.5500
411.61	57.3000
411.97	57.7000
412.32	58.0000
412.68	58.4500
413.04	58.1500
413.40	58.0000
413.75	58.1000
414.11	57.6500
414.47	58.5000
414.83	57.9000
415.19	57.9000
415.54	58.4500
415.90	58.1000
416.26	57.7500
416.62	57.0000
416.97	58.5000
417.33	57.5500
417.69	57.4000
418.05	58.0000
418.40	57.8500
418.76	57.5500
419.12	57.6000
419.48	58.5000
419.83	57.4000
420.19	57.7000
420.55	57.6500
420.90	57.9000
421.26	57.6500
421.62	58.5000
421.98	57.1500
422.33	57.5500
422.69	57.7000
423.05	57.6000
423.40	57.1500
423.76	58.0500
424.12	57.7000
424.47	59.2500
424.83	58.2500
425.19	57.4500
425.54	59.5000
425.90	58.7500
426.26	58.5500
426.61	58.6000
426.97	57.4000
427.33	57.6000
427.68	57.5000
428.04	57.3000
428.40	58.2500
428.75	58.1500
429.11	58.5500
429.47	58.4500
429.82	58.2000
430.18	57.0500
430.53	57.5500
430.89	58.0000
431.25	58.4000
431.60	57.5500
431.96	58.6000
432.31	57.9000
432.67	57.1000
433.03	58.6000
433.38	58.4500
433.74	58.0500
434.09	59.2000
434.45	58.0500
434.81	58.8500
435.16	57.7500
435.52	58.9000
435.87	57.5500
436.23	58.4000
436.58	57.5000
436.94	56.5500
437.30	57.5500
437.65	57.8000
438.01	57.2000
438.36	57.2000
438.72	57.2500
439.07	58.0500
439.43	57.7500
439.78	58.2500
440.14	57.5500
440.49	58.3000
440.85	58.6500
441.20	58.0500
441.56	58.0000
441.91	57.8500
442.27	58.2000
442.62	57.1500
442.98	58.2000
443.33	58.7000
443.69	58.3500
444.04	69.6000
444.40	58.3000
444.75	59.0500
445.11	57.7000
445.46	57.7000
445.82	57.5500
446.17	58.2000
446.53	57.5000
446.88	57.4000
447.23	57.9500
447.59	58.1500
447.94	58.4000
448.30	57.0000
448.65	58.3500
449.01	57.2000
449.36	57.6500
449.72	57.6500
450.07	58.0500
450.42	58.3000
450.78	57.6500
451.13	57.2500
451.49	56.9000
451.84	56.8500
452.19	58.9000
452.55	58.6500
452.90	58.6500
453.26	58.4500
453.61	58.1000
453.96	57.5000
454.32	58.1500
454.67	57.2000
455.02	58.5500
455.38	56.7500
455.73	57.3500
456.09	58.2000
456.44	58.8500
456.79	58.8500
457.15	56.7500
457.50	57.3500
457.85	56.8500
458.21	57.9500
458.56	58.0500
458.91	57.9500
459.27	57.4000
459.62	57.6000
459.97	57.7500
460.32	58.4500
460.68	59.1500
461.03	58.2500
461.38	56.9500
461.74	56.8500
462.09	57.4000
462.44	58.2000
462.80	57.7000
463.15	58.3500
463.50	57.1500
463.85	58.7000
464.21	57.4500
464.56	57.5000
464.91	57.8000
465.26	57.2500
465.62	57.5500
465.97	57.7500
466.32	59.0000
466.67	57.7500
467.03	57.5000
467.38	58.0000
467.73	58.1500
468.08	58.2000
468.44	58.2500
468.79	57.5000
469.14	57.7000
469.49	58.0500
469.85	58.8000
470.20	57.4500
470.55	57.4000
470.90	58.2000
471.25	57.8500
471.61	57.4000
471.96	58.1500
472.31	57.7000
472.66	57.5000
473.01	58.2000
473.36	57.5500
473.72	57.6000
474.07	57.3500
474.42	57.1500
474.77	58.1000
475.12	57.7500
475.47	57.6000
475.83	57.9500
476.18	58.6000
476.53	57.1000
476.88	57.3500
477.23	58.2000
477.58	58.9000
477.93	57.8500
478.28	58.2500
478.64	58.1000
478.99	57.1500
479.34	58.0000
479.69	58.4500
480.04	57.4500
480.39	57.4000
480.74	57.6000
481.09	57.6000
481.44	59.1000
481.79	57.8500
482.15	57.1000
482.50	58.7500
482.85	59.0500
483.20	57.6000
483.55	57.7500
483.90	57.2500
484.25	57.5000
484.60	58.0500
484.95	59.0000
485.30	57.5000
485.65	57.1000
486.00	57.1000
486.35	56.9500
486.70	57.6500
487.05	57.5500
487.40	57.2000
487.75	59.2000
488.10	57.5500
488.45	57.1500
488.80	58.0000
489.15	56.8000
489.50	58.0500
489.85	58.4000
490.20	57.4500
490.55	56.9000
490.90	57.6500
491.25	57.9500
491.60	57.6500
491.95	58.5000
492.30	56.9500
492.65	57.8500
493.00	57.9500
493.35	57.5000
493.70	57.8500
494.05	57.3500
494.40	57.1500
494.75	57.8000
495.10	56.8000
495.45	57.3500
495.80	58.0000
496.15	58.0000
496.50	58.3500
496.84	59.0000
497.19	58.7500
497.54	58.2500
497.89	56.9500
498.24	58.0000
498.59	57.3500
498.94	58.1500
499.29	57.4000
499.64	58.1000
499.99	57.6000
500.33	57.2500
500.68	59.0500
501.03	58.6500
501.38	57.6000
501.73	58.0500
502.08	57.6000
502.43	57.9000
502.77	58.4000
503.12	57.4000
503.47	57.5000
503.82	57.8500
504.17	59.1000
504.52	58.6000
504.86	57.8500
505.21	57.9500
505.56	59.7000
505.91	57.9500
506.26	57.0000
506.61	57.5500
506.95	57.8500
507.30	57.8000
507.65	58.2500
508.00	57.4500
508.35	58.4000
508.69	57.8000
509.04	57.9000
509.39	57.9500
509.74	57.9500
510.08	58.2000
510.43	57.6000
510.78	57.4000
511.13	57.7000
511.47	58.9000
511.82	59.6000
512.17	58.0000
512.52	58.8000
512.86	58.3000
513.21	57.4500
513.56	57.2000
513.91	58.1500
514.25	58.7000
514.60	59.2000
514.95	59.3000
515.30	58.7500
515.64	57.5000
515.99	57.5500
516.34	57.8000
516.68	58.7500
517.03	58.0500
517.38	57.3000
517.72	58.3000
518.07	58.4500
518.42	58.7000
518.76	58.6500
519.11	59.5500
519.46	58.4500
519.80	57.6500
520.15	58.6000
520.50	59.0000
520.84	58.2000
521.19	58.6000
521.54	58.6500
521.88	59.1000
522.23	58.5000
522.58	58.7500
522.92	60.0000
523.27	58.7500
523.61	58.5000
523.96	58.5500
524.31	59.5500
524.65	58.9000
525.00	59.6000
525.34	58.9500
525.69	59.4000
526.04	60.5500
526.38	59.7500
526.73	59.6500
527.07	59.2500
527.42	60.1000
527.76	60.6500
528.11	59.7500
528.46	61.1000
528.80	60.5000
529.15	60.2500
529.49	61.5500
529.84	60.7000
530.18	60.6500
530.53	59.8000
530.87	60.7000
531.22	61.1500
531.56	61.1000
531.91	62.4500
532.25	62.7000
532.60	62.6500
532.94	61.4000
533.29	63.2000
533.63	61.9000
533.98	63.3500
534.32	63.6000
534.67	63.9000
535.01	64.3000
535.36	63.0000
535.70	63.1000
536.05	62.7500
536.39	63.1000
536.74	64.3000
537.08	64.3000
537.43	65.0500
537.77	65.1000
538.12	66.1500
538.46	67.3500
538.80	65.2000
539.15	67.3000
539.49	66.1500
539.84	67.3000
540.18	66.9500
540.53	67.4500
540.87	66.8500
541.21	68.3500
541.56	67.6000
541.90	69.4000
542.25	68.6000
542.59	69.6000
542.93	70.2000
543.28	70.1000
543.62	70.5000
543.97	72.5000
544.31	71.2000
544.65	70.7500
545.00	72.8500
545.34	71.6000
545.68	72.2000
546.03	71.4000
546.37	74.5000
546.71	75.5000
547.06	74.9500
547.40	76.1000
547.74	74.3500
548.09	75.6500
548.43	75.9000
548.77	77.0000
549.12	76.4500
549.46	78.0000
549.80	79.5000
550.15	78.9000
550.49	79.3000
550.83	81.3000
551.17	81.5000
551.52	80.6000
551.86	82.0000
552.20	82.2000
552.55	83.5000
552.89	84.3000
553.23	85.0000
553.57	85.9000
553.92	85.4500
554.26	86.9500
554.60	87.3500
554.94	87.7500
555.29	89.3000
555.63	89.2500
555.97	90.8000
556.31	90.1500
556.66	90.9000
557.00	91.8500
557.34	91.5500
557.68	92.3500
558.02	93.2000
558.37	93.4000
558.71	97.2000
559.05	97.1500
559.39	98.9000
559.73	101.0500
560.08	102.9000
560.42	102.7500
560.76	102.4000
561.10	102.6500
561.44	104.2000
561.78	103.2500
562.13	106.0000
562.47	106.9000
562.81	109.4500
563.15	109.5000
563.49	109.5500
563.83	110.0000
564.17	112.6500
564.52	114.1500
564.86	114.1000
565.20	115.4500
565.54	116.0000
565.88	117.0000
566.22	120.5000
566.56	121.0500
566.90	122.8000
567.24	127.2500
567.59	129.0500
567.93	131.1500
568.27	135.0500
568.61	138.6000
568.95	139.7000
569.29	142.9000
569.63	146.4500
569.97	147.2000
570.31	152.5000
570.65	157.3000
570.99	158.1500
571.33	158.7500
571.67	157.7500
572.01	162.6500
572.35	167.1000
572.69	171.9000
573.03	175.6000
573.37	179.3500
573.71	182.4000
574.05	182.4000
574.39	181.4000
574.73	182.4500
575.07	183.8000
575.41	187.3500
575.75	189.1000
576.09	197.0500
576.43	207.1500
576.77	213.8000
577.11	216.9000
577.45	215.4500
577.79	210.6000
578.13	211.7000
578.47	211.2000
578.81	214.1000
579.15	214.4000
579.49	216.5000
579.83	229.7000
580.17	247.5000
580.51	260.0000
580.85	268.6500
581.19	261.4000
581.53	250.8000
581.87	241.0000
582.20	232.6000
582.54	225.7000
582.88	227.3000
583.22	231.1500
583.56	244.8000
583.90	256.5500
584.24	265.5000
584.58	265.4000
584.92	262.0000
585.25	258.6500
585.59	255.6000
585.93	260.4000
586.27	268.4000
586.61	270.4500
586.95	271.0500
587.29	272.1500
587.62	268.1000
587.96	265.1000
588.30	261.0000
588.64	259.2500
588.98	260.8000
589.31	262.9500
589.65	260.9000
589.99	259.3500
590.33	263.9000
590.67	264.0500
591.01	268.9000
591.34	285.0500
591.68	299.0000
592.02	314.4000
592.36	318.1000
592.69	315.0000
593.03	309.6000
593.37	309.2500
593.71	310.9000
594.04	315.6500
594.38	319.3000
594.72	318.5000
595.06	313.6500
595.39	312.1500
595.73	311.0500
596.07	319.4500
596.41	323.4000
596.74	338.9500
597.08	329.4500
597.42	337.6000
597.76	351.8000
598.09	360.3500
598.43	360.1000
598.77	363.9000
599.10	371.7500
599.44	372.8500
599.78	378.6500
600.11	375.4000
600.45	378.6500
600.79	372.8500
601.12	376.2500
601.46	378.7000
601.80	385.1500
602.13	394.9000
602.47	403.0000
602.81	404.5500
603.14	399.7500
603.48	398.2000
603.82	398.6000
604.15	397.9500
604.49	410.9000
604.82	413.6500
605.16	411.8000
605.50	412.4000
605.83	418.5000
606.17	425.9500
606.50	429.8000
606.84	432.4500
607.18	434.0000
607.51	429.8000
607.85	432.1000
608.18	427.8000
608.52	436.1000
608.86	444.0000
609.19	453.4000
609.53	450.7000
609.86	452.2000
610.20	455.5500
610.53	456.3500
610.87	451.7500
611.20	458.8500
611.54	452.0500
611.87	461.1500
612.21	464.4000
612.54	460.6000
612.88	465.8500
613.21	476.3500
613.55	482.3500
613.88	486.9500
614.22	498.6500
614.55	496.9500
614.89	495.7500
615.22	490.0500
615.56	490.1000
615.89	489.2000
616.23	486.2500
616.56	487.5500
616.90	493.3000
617.23	491.0500
617.57	494.8500
617.90	487.2500
618.24	491.6000
618.57	495.9500
618.90	501.7000
619.24	507.6500
619.57	502.6000
619.91	496.6500
620.24	483.3000
620.58	494.3000
620.91	510.1000
621.24	518.2000
621.58	524.9000
621.91	530.2500
622.25	537.4000
622.58	533.1000
622.91	540.5000
623.25	532.2000
623.58	538.1500
623.91	538.0000
624.25	534.0500
624.58	532.9500
624.92	532.0000
625.25	531.8000
625.58	529.5500
625.92	541.2000
626.25	539.4500
626.58	546.1500
626.92	536.3500
627.25	538.8500
627.58	535.7000
627.91	547.3000
628.25	554.6000
628.58	554.2500
628.91	553.8500
629.25	556.8000
629.58	554.7000
629.91	559.6000
630.25	557.1500
630.58	553.4000
630.91	547.8000
631.24	552.7000
631.58	553.9500
631.91	556.2500
632.24	548.6000
632.57	553.5500
632.91	556.6000
633.24	553.3500
633.57	557.8500
633.90	564.0000
634.24	561.1000
634.57	567.9000
634.90	576.1000
635.23	574.2500
635.56	581.2000
635.90	584.6500
636.23	585.0000
636.56	584.8500
636.89	588.9500
637.22	589.9000
637.56	592.0000
637.89	583.6000
638.22	591.8000
638.55	592.1000
638.88	580.5500
639.21	591.0000
639.55	592.8000
639.88	595.4000
640.21	594.9000
640.54	592.9000
640.87	589.0000
641.20	595.9500
641.53	602.6500
641.87	600.8000
642.20	602.1000
642.53	605.4500
642.86	608.2500
643.19	610.1500
643.52	607.6000
643.85	612.1000
644.18	613.8000
644.51	611.8500
644.84	614.2000
645.18	611.0500
645.51	612.8000
645.84	617.2000
646.17	619.5000
646.50	623.8000
646.83	631.7000
647.16	635.1500
647.49	648.0000
647.82	655.1000
648.15	662.4500
648.48	662.9000
648.81	661.6000
649.14	652.5000
649.47	654.4500
649.80	650.7500
650.13	646.1000
650.46	658.0500
650.79	658.4000
651.12	664.8500
651.45	663.2500
651.78	663.3500
652.11	669.3500
652.44	669.6000
652.77	669.1500
653.10	671.6500
653.43	672.5500
653.76	678.3000
654.09	698.4000
654.42	1108.4000
654.75	1971.3500
655.08	2511.2500
655.41	2721.7000
655.74	2202.7000
656.07	1715.3000
656.39	1407.1000
656.72	1173.7500
657.05	970.6500
657.38	833.5000
657.71	753.1500
658.04	721.2000
658.37	704.4000
658.70	693.0000
659.03	687.0500
659.36	690.1000
659.68	694.3500
660.01	689.5500
660.34	689.0500
660.67	692.0000
661.00	698.5500
661.33	691.6000
661.66	692.1000
661.98	697.2500
662.31	696.0000
662.64	691.0000
662.97	697.9500
663.30	699.8500
663.63	706.0500
663.95	703.6500
664.28	708.3500
664.61	708.4000
664.94	714.8000
665.27	707.5000
665.59	701.7500
665.92	708.9000
666.25	705.9000
666.58	696.4000
666.91	710.3500
667.23	701.9500
667.56	701.4000
667.89	708.6000
668.22	715.1000
668.54	714.6000
668.87	717.9000
669.20	713.3000
669.53	723.2500
669.85	720.4000
670.18	718.2500
670.51	727.7500
670.83	739.7500
671.16	755.1000
671.49	762.9500
671.82	757.9500
672.14	747.5500
672.47	740.1000
672.80	734.2000
673.12	734.2500
673.45	738.7000
673.78	722.8500
674.10	731.4000
674.43	725.1000
674.76	728.6000
675.08	733.3500
675.41	729.0500
675.74	731.1500
676.06	730.3500
676.39	726.8000
676.72	736.8000
677.04	743.8500
677.37	748.3000
677.69	744.1500
678.02	738.1500
678.35	743.1000
678.67	741.5000
679.00	761.4500
679.32	757.2000
679.65	746.8000
679.98	746.3000
680.30	747.9000
680.63	744.1500
680.95	748.8000
681.28	746.0500
681.60	733.3500
681.93	726.6000
682.26	723.7000
682.58	726.2500
682.91	736.3000
683.23	736.6500
683.56	744.3500
683.88	757.0000
684.21	759.6000
684.53	777.4500
684.86	783.7500
685.18	773.8000
685.51	770.8500
685.83	759.0000
686.16	750.2000
686.48	748.2000
686.81	748.4000
687.13	744.0500
687.46	735.9500
687.78	731.7000
688.11	720.7000
688.43	720.0000
688.76	727.3500
689.08	722.3500
689.41	716.9000
689.73	718.5000
690.05	722.6000
690.38	734.4500
690.70	736.3000
691.03	729.9000
691.35	733.9000
691.68	726.1500
692.00	723.3000
692.32	732.5500
692.65	728.2500
692.97	730.0500
693.29	716.6000
693.62	704.2500
693.94	711.4500
694.27	705.9000
694.59	692.3500
694.91	702.4000
695.24	701.7000
695.56	686.7500
695.88	705.4000
696.21	710.6000
696.53	720.9500
696.85	728.4500
697.18	724.0500
697.50	713.2000
697.82	716.6500
698.15	703.3500
698.47	700.6500
698.79	696.9500
699.12	693.4500
699.44	674.0500
699.76	676.2000
700.09	674.6500
700.41	673.5500
700.73	671.0000
701.05	674.9500
701.38	677.7000
701.70	687.9000
702.02	694.5500
702.34	685.4000
702.67	684.9500
702.99	680.8000
703.31	676.0000
703.63	678.5000
703.96	669.5000
704.28	661.8000
704.60	657.9000
704.92	664.0500
705.25	663.6000
705.57	677.6000
705.89	691.7000
706.21	706.2000
706.53	714.9500
706.86	714.7000
707.18	712.2000
707.50	713.0000
707.82	698.0500
708.14	699.4000
708.46	703.7000
708.79	685.0500
709.11	690.2500
709.43	685.0500
709.75	687.6500
710.07	682.1000
710.39	684.4500
710.71	678.1500
711.04	670.7000
711.36	668.3500
711.68	668.6000
712.00	668.9500
712.32	673.6500
712.64	669.3000
712.96	677.2000
713.28	675.4500
713.60	683.3500
713.92	676.9500
714.24	678.6500
714.57	670.2500
714.89	668.3000
715.21	661.9000
715.53	646.1000
715.85	642.7500
716.17	643.4500
716.49	638.3500
716.81	640.3000
717.13	647.0500
717.45	646.9000
717.77	651.0500
718.09	651.1500
718.41	652.8000
718.73	652.4000
719.05	648.2000
719.37	636.5000
719.69	640.6000
720.01	646.6000
720.33	637.7000
720.65	637.4000
720.97	638.4500
721.29	635.2500
721.61	636.2000
721.93	635.7000
722.25	626.9000
722.57	622.9500
722.89	621.8500
723.21	622.3000
723.52	625.7000
723.84	615.7500
724.16	632.6500
724.48	633.5000
724.80	640.7000
725.12	638.6000
725.44	634.0000
725.76	633.9500
726.08	634.4500
726.40	625.6500
726.72	624.9500
727.03	628.4000
727.35	628.0000
727.67	623.2000
727.99	624.4500
728.31	622.8500
728.63	619.5000
728.95	629.0500
729.26	625.2500
729.58	627.3500
729.90	633.7000
730.22	632.1000
730.54	640.0000
730.86	639.6000
731.17	641.4000
731.49	629.0000
731.81	628.4000
732.13	621.9500
732.45	614.9500
732.76	619.2000
733.08	620.5000
733.40	626.8000
733.72	630.8000
734.03	623.4000
734.35	620.3500
734.67	620.9000
734.99	613.7000
735.30	613.1500
735.62	609.8500
735.94	605.6000
736.26	601.2500
736.57	597.8500
736.89	602.3000
737.21	582.9500
737.53	574.0500
737.84	579.1000
738.16	580.5500
738.48	590.8500
738.79	602.2500
739.11	595.7000
739.43	585.1500
739.74	580.4500
740.06	569.7000
740.38	555.0000
740.69	548.2500
741.01	548.7500
741.33	539.0000
741.64	547.0000
741.96	547.0500
742.28	546.5000
742.59	533.7000
742.91	533.3500
743.23	526.5000
743.54	531.7000
743.86	527.0000
744.17	519.7000
744.49	521.3500
744.81	518.5500
745.12	514.1000
745.44	508.5500
745.75	514.6500
746.07	506.4500
746.38	511.8500
746.70	513.4000
747.02	511.2000
747.33	501.8500
747.65	504.1500
747.96	501.3500
748.28	501.7500
748.59	505.1000
748.91	507.1500
749.22	515.7500
749.54	516.4000
749.85	519.9500
750.17	512.8500
750.48	508.3500
750.80	504.5000
751.11	506.1000
751.43	506.2000
751.74	502.2500
752.06	500.7500
752.37	501.5500
752.69	500.5000
753.00	503.5000
753.32	508.3000
753.63	506.7000
753.95	498.9500
754.26	492.8000
754.58	498.3000
754.89	503.6500
755.20	502.0000
755.52	511.0500
755.83	517.7500
756.15	521.9500
756.46	531.2000
756.78	538.8500
757.09	542.1000
757.40	541.0500
757.72	531.7500
758.03	523.1000
758.34	515.4000
758.66	519.0000
758.97	519.2000
759.29	522.3500
759.60	525.4500
759.91	521.4000
760.23	522.8500
760.54	528.2000
760.85	510.7000
761.17	499.7500
761.48	486.7500
761.79	480.4500
762.11	482.5000
762.42	484.4000
762.73	494.6000
763.05	496.5000
763.36	503.5000
763.67	506.4500
763.98	509.7000
764.30	509.5500
764.61	514.0000
764.92	508.9000
765.23	493.2000
765.55	473.7000
765.86	466.0000
766.17	461.8500
766.48	454.6000
766.80	446.8000
767.11	457.5500
767.42	455.7000
767.73	463.9500
768.05	476.8500
768.36	484.2000
768.67	484.9000
768.98	472.8000
769.29	472.3000
769.61	461.7500
769.92	453.5000
770.23	459.8000
770.54	453.3500
770.85	457.8000
771.17	450.6500
771.48	447.5000
771.79	442.7000
772.10	438.6500
772.41	439.8500
772.72	434.5000
773.03	426.7500
773.35	426.7500
773.66	418.0500
773.97	417.2000
774.28	411.6000
774.59	406.5500
774.90	405.3000
775.21	409.6500
775.52	408.5500
775.83	409.3000
776.15	403.0000
776.46	401.2500
776.77	398.3500
777.08	398.2500
777.39	399.9000
777.70	393.9000
778.01	405.2500
778.32	409.1500
778.63	410.2000
778.94	408.2500
779.25	402.4000
779.56	395.0500
779.87	392.9500
780.18	399.0000
780.49	402.2500
780.80	410.9000
781.11	408.0500
781.42	403.2000
781.73	398.3000
782.04	389.8500
782.35	387.9000
782.66	388.6000
782.97	385.6000
783.28	386.3000
783.59	379.2500
783.90	372.1500
784.21	366.3500
784.52	369.0000
784.83	369.9000
785.14	372.1500
785.45	367.2500
785.76	365.3000
786.06	364.2000
786.37	365.8500
786.68	363.7000
786.99	363.1000
787.30	362.5000
787.61	362.8000
787.92	364.5000
788.23	363.8500
788.54	366.1500
788.84	359.0000
789.15	353.4500
789.46	346.1500
789.77	339.6500
790.08	338.6000
790.39	335.1500
790.70	341.7500
791.00	339.9500
791.31	332.9500
791.62	333.2000
791.93	328.3000
792.24	331.0500
792.54	325.8500
792.85	325.1000
793.16	339.2500
793.47	347.6000
793.78	356.8000
794.08	352.0000
794.39	346.1500
794.70	340.7000
795.01	332.6000
795.31	320.4500
795.62	313.1500
795.93	309.1000
796.24	307.9000
796.54	308.8500
796.85	311.2500
797.16	306.6500
797.47	305.6500
797.77	302.1000
798.08	302.3000
798.39	304.4000
798.69	301.8500
799.00	297.5000
799.31	294.3000
799.62	293.3500
799.92	291.0000
800.23	286.3000
800.54	289.5000
800.84	290.5000
801.15	286.7000
801.46	282.1500
801.76	284.6000
802.07	277.1500
802.37	277.9000
802.68	276.4000
802.99	280.4500
803.29	277.0500
803.60	272.6000
803.91	269.9500
804.21	272.0500
804.52	271.9000
804.82	271.8000
805.13	277.0500
805.44	278.2500
805.74	280.8000
806.05	284.5000
806.35	279.0000
806.66	271.9000
806.96	270.2500
807.27	266.3500
807.57	266.8500
807.88	263.4000
808.19	263.0000
808.49	261.6500
808.80	259.4000
809.10	256.5000
809.41	257.1000
809.71	252.4000
810.02	251.3500
810.32	249.0000
810.63	251.6500
810.93	250.7000
811.24	248.8500
811.54	245.3500
811.85	243.3500
812.15	241.5000
812.45	240.2500
812.76	239.6500
813.06	244.3000
813.37	244.6000
813.67	250.0000
813.98	242.9000
814.28	236.6500
814.58	237.5000
814.89	234.4500
815.19	233.7000
815.50	229.2500
815.80	228.8500
816.11	231.7000
816.41	231.7000
816.71	232.3000
817.02	230.6500
817.32	229.5000
817.62	226.6500
817.93	225.8000
818.23	221.0000
818.53	220.4000
818.84	222.8000
819.14	218.3500
819.44	219.5000
819.75	221.4500
820.05	222.4500
820.35	223.7500
820.66	224.1500
820.96	222.8500
821.26	218.0000
821.57	215.9500
821.87	212.0500
822.17	214.3000
822.48	213.1500
822.78	211.1500
823.08	207.0000
823.38	209.0500
823.69	204.8000
823.99	207.1000
824.29	207.1500
824.59	202.4000
824.90	209.3000
825.20	206.1500
825.50	203.8500
825.80	202.3500
826.10	204.3500
826.41	203.6000
826.71	206.5500
827.01	207.2000
827.31	205.3500
827.61	205.3000
827.92	201.3000
828.22	198.5000
828.52	197.1500
828.82	197.1500
829.12	196.6000
829.42	196.1500
829.73	193.1000
830.03	192.1500
830.33	187.6500
830.63	187.0500
830.93	185.8500
831.23	183.4500
831.53	185.4500
831.83	181.6500
832.14	183.1000
832.44	183.8500
832.74	184.3500
833.04	184.5500
833.34	185.5500
833.64	182.9000
833.94	181.0500
834.24	183.8000
834.54	184.1000
834.84	180.6500
835.14	178.4000
835.44	179.2000
835.74	178.1500
836.04	174.9000
836.34	174.7500
836.64	173.7000
836.95	172.3000
837.25	171.2500
837.55	171.2500
837.85	169.2500
838.15	169.9500
838.45	167.0000
838.74	169.2500
839.04	168.5500
839.34	169.1500
839.64	167.4500
839.94	165.5000
840.24	165.3000
840.54	165.7500
840.84	166.0000
841.14	163.4500
841.44	165.1000
841.74	162.4000
842.04	163.2000
842.34	162.7000
842.64	160.0500
842.94	159.4500
843.24	158.5500
843.53	159.2500
843.83	159.3000
844.13	157.5000
844.43	156.4000
844.73	157.7000
845.03	156.2500
845.33	153.6000
845.63	156.8500
845.92	154.3500
846.22	153.8000
846.52	150.6500
846.82	151.2500
847.12	150.8000
847.42	151.5000
847.71	152.0000
848.01	148.4000
848.31	148.4500
848.61	148.7000
848.91	147.7500
849.20	147.7500
849.50	146.1000
849.80	147.2500
850.10	146.4000
850.39	144.3500
850.69	144.7500
850.99	143.4500
851.29	141.6500
851.59	142.9500
851.88	144.3000
852.18	143.4000
852.48	145.3500
852.77	144.2000
853.07	146.6000
853.37	145.7000
853.67	145.4000
853.96	145.6500
854.26	143.6000
854.56	144.4500
854.85	143.2000
855.15	140.4000
855.45	140.9500
855.74	139.5000
856.04	138.5000
856.34	138.7000
856.63	139.4000
856.93	137.6000
857.23	135.8000
857.52	134.2500
857.82	134.5000
858.11	135.8500
858.41	131.5500
858.71	133.0000
859.00	130.8500
859.30	130.5500
859.59	130.7500
859.89	130.1500
860.19	129.1500
860.48	128.7500
860.78	127.4000
861.07	127.3500
861.37	127.5000
861.66	126.7500
861.96	126.4000
862.26	126.9000
862.55	124.6000
862.85	125.3500
863.14	124.9500
863.44	124.1500
863.73	124.0500
864.03	123.2000
864.32	124.3000
864.62	123.3000
864.91	121.6500
865.21	121.0000
865.50	119.2500
865.80	120.6500
866.09	120.1500
866.39	119.2500
866.68	120.1000
866.97	119.3000
867.27	117.9500
867.56	116.3500
867.86	116.3000
868.15	115.9000
868.45	116.7000
868.74	116.2500
869.03	115.9000
869.33	113.9500
869.62	114.9000
869.92	112.5000
870.21	111.5500
870.50	112.2000
870.80	110.8500
871.09	112.3000
871.39	111.2500
871.68	112.8500
871.97	110.4000
872.27	110.4000
872.56	109.0500
872.85	108.5000
873.15	107.3000
873.44	107.6000
873.73	108.4000
874.03	108.3000
874.32	106.6000
874.61	107.1500
874.90	105.4000
875.20	106.3500
875.49	105.2000
875.78	105.0500
>>>>>End Spectral Data<<<<<
