>>>>>Begin Spectral Data<<<<<
179.00	0.0000
179.38	0.0000
179.75	54.9000
180.13	56.1500
180.51	56.0500
180.88	58.1500
181.26	55.8000
181.64	57.0500
182.02	55.4000
182.39	56.8500
182.77	55.4000
183.15	55.5000
183.52	56.9500
183.90	55.9000
184.28	55.4000
184.65	56.4000
185.03	55.9500
185.41	56.6000
185.78	56.0500
186.16	56.0000
186.53	56.0000
186.91	56.2000
187.29	55.9500
187.66	55.2500
188.04	56.5000
188.42	57.6000
188.79	56.6500
189.17	58.1500
189.55	56.6000
189.92	56.5000
190.30	57.5000
190.67	56.3000
191.05	56.1000
191.43	57.3000
191.80	57.2500
192.18	56.1000
192.56	56.5500
192.93	57.1500
193.31	55.9500
193.68	57.4000
194.06	57.1000
194.44	57.1000
194.81	57.8500
195.19	57.7500
195.56	56.7500
195.94	57.8000
196.32	55.9000
196.69	56.1500
197.07	56.6000
197.44	56.7000
197.82	57.9500
198.19	58.1500
198.57	57.1000
198.95	57.7000
199.32	56.9000
199.70	56.7000
200.07	56.7000
200.45	57.0000
200.82	56.8500
201.20	57.1500
201.57	57.2500
201.95	56.8000
202.33	56.7000
202.70	57.1000
203.08	57.4500
203.45	56.3500
203.83	57.3000
204.20	56.7500
204.58	56.3500
204.95	57.8000
205.33	57.3000
205.70	57.7500
206.08	56.6000
206.45	57.5500
206.83	56.0500
207.20	57.1500
207.58	56.1000
207.95	56.9500
208.33	56.5500
208.70	58.2000
209.08	55.9500
209.45	57.0500
209.83	57.0000
210.20	56.5000
210.58	56.9000
210.95	57.9000
211.33	57.6500
211.70	57.0500
212.08	57.4000
212.45	57.4000
212.83	57.7500
213.20	57.3000
213.58	56.3000
213.95	57.6500
214.33	57.0000
214.70	56.6500
215.07	56.8000
215.45	57.4500
215.82	57.8000
216.20	56.5500
216.57	57.3000
216.95	57.0000
217.32	57.9000
217.70	57.3000
218.07	57.1500
218.44	56.5500
218.82	58.4000
219.19	57.2500
219.57	57.0000
219.94	57.4500
220.32	57.0500
220.69	57.6000
221.06	57.3500
221.44	58.3000
221.81	58.5500
222.19	57.6000
222.56	57.5000
222.93	58.1000
223.31	57.5500
223.68	56.2000
224.06	56.3500
224.43	58.3500
224.80	56.4000
225.18	56.8000
225.55	56.4500
225.92	59.0500
226.30	56.8000
226.67	56.9500
227.05	57.1000
227.42	58.2500
227.79	58.1500
228.17	57.3500
228.54	56.8000
228.91	57.6500
229.29	58.3500
229.66	57.9500
230.03	57.0500
230.41	57.8000
230.78	57.8500
231.15	57.5500
231.53	57.3000
231.90	57.8500
232.27	58.6500
232.65	56.8000
233.02	56.7000
233.39	58.0500
233.77	56.9000
234.14	58.7000
234.51	57.3000
234.89	57.9000
235.26	56.9000
235.63	56.3500
236.01	56.0500
236.38	57.2500
236.75	57.0000
237.12	57.1000
237.50	56.8500
237.87	57.2000
238.24	56.8500
238.62	57.6000
238.99	57.5500
239.36	57.2000
239.73	58.0000
240.11	58.0500
240.48	57.5500
240.85	57.9500
241.23	56.8500
241.60	57.3000
241.97	57.1500
242.34	57.3000
242.72	57.7000
243.09	56.7500
243.46	57.9000
243.83	57.6500
244.21	57.5500
244.58	57.6000
244.95	58.1000
245.32	57.3500
245.70	55.8500
246.07	57.9000
246.44	58.0000
246.81	57.7500
247.18	58.5000
247.56	57.7500
247.93	56.8000
248.30	56.6500
248.67	57.4000
249.04	56.6500
249.42	57.4500
249.79	56.9000
250.16	57.4500
250.53	57.6000
250.90	57.2000
251.28	56.7000
251.65	57.5500
252.02	57.6500
252.39	56.9000
252.76	56.5000
253.14	57.8000
253.51	57.1000
253.88	57.6500
254.25	57.5500
254.62	57.4000
254.99	56.3500
255.37	56.9500
255.74	57.9500
256.11	57.6000
256.48	57.8500
256.85	57.8000
257.22	57.6500
257.59	57.3000
257.97	57.1000
258.34	57.7000
258.71	57.7000
259.08	57.4000
259.45	56.5000
259.82	56.2500
260.19	56.4000
260.56	57.0000
260.94	57.1000
261.31	57.7000
261.68	56.9500
262.05	57.7500
262.42	56.4500
262.79	58.0500
263.16	57.8500
263.53	56.7500
263.90	59.0000
264.28	57.7500
264.65	57.1500
265.02	57.7000
265.39	57.9000
265.76	57.4500
266.13	58.0500
266.50	57.3500
266.87	56.6500
267.24	57.1000
267.61	57.8000
267.98	56.3500
268.35	58.2000
268.72	57.6000
269.09	57.3000
269.46	56.4500
269.84	58.0500
270.21	57.1000
270.58	58.0000
270.95	58.2000
271.32	57.9500
271.69	57.4500
272.06	57.3500
272.43	57.1500
272.80	56.6500
273.17	57.8000
273.54	57.9000
273.91	57.4500
274.28	56.9000
274.65	57.3500
275.02	56.9500
275.39	56.9000
275.76	57.9000
276.13	57.4000
276.50	57.4500
276.87	56.5000
277.24	57.1000
277.61	56.8500
277.98	58.0000
278.35	57.8000
278.72	55.4000
279.09	57.4000
279.46	59.3500
279.83	57.9000
280.20	57.6500
280.57	58.5500
280.94	57.7500
281.31	56.5500
281.67	57.9500
282.04	57.2000
282.41	57.3000
282.78	57.6500
283.15	57.4500
283.52	56.5500
283.89	60.2500
284.26	57.5000
284.63	57.6000
285.00	57.9500
285.37	57.5000
285.74	56.9500
286.11	57.0500
286.48	57.4500
286.85	57.3000
287.21	56.0000
287.58	57.4500
287.95	57.2000
288.32	56.8500
288.69	58.6500
289.06	57.6500
289.43	57.2000
289.80	56.8500
290.17	56.6500
290.54	57.7000
290.90	57.0000
291.27	59.6000
291.64	58.4500
292.01	57.5000
292.38	56.7500
292.75	57.4000
293.12	57.0000
293.48	57.0000
293.85	57.2000
294.22	56.4000
294.59	57.5000
294.96	58.3000
295.33	57.3000
295.70	57.9000
296.06	57.8000
296.43	58.0000
296.80	58.3500
297.17	57.4000
297.54	57.0000
297.91	58.2000
298.27	57.4500
298.64	57.6500
299.01	56.9500
299.38	58.7500
299.75	57.6000
300.11	56.7000
300.48	57.4000
300.85	57.2500
301.22	56.5500
301.59	57.7000
301.95	57.6000
302.32	57.9500
302.69	56.3500
303.06	57.1000
303.43	56.9500
303.79	56.8500
304.16	58.6000
304.53	58.1000
304.90	58.1500
305.26	57.5500
305.63	56.9500
306.00	56.6000
306.37	57.7500
306.73	58.0500
307.10	56.9500
307.47	57.0000
307.84	57.0000
308.20	58.5000
308.57	57.1000
308.94	57.2500
309.31	57.8000
309.67	57.2500
310.04	57.5000
310.41	58.8000
310.77	58.2500
311.14	57.5500
311.51	57.7000
311.88	57.7500
312.24	58.1000
312.61	58.5000
312.98	57.6500
313.34	56.7000
313.71	58.6500
314.08	56.7500
314.44	57.1500
314.81	58.4000
315.18	57.9000
315.55	57.5000
315.91	57.6000
316.28	58.4000
316.65	57.2500
317.01	57.2000
317.38	58.3000
317.75	58.5500
318.11	57.9500
318.48	57.2000
318.84	58.0500
319.21	57.1500
319.58	56.2500
319.94	57.5000
320.31	58.0500
320.68	58.1000
321.04	56.4000
321.41	56.9000
321.78	57.4000
322.14	58.7000
322.51	58.1500
322.87	57.0500
323.24	56.5500
323.61	57.1500
323.97	57.4500
324.34	57.5500
324.70	57.4000
325.07	58.0500
325.44	57.6000
325.80	56.9000
326.17	57.6000
326.53	57.6500
326.90	57.0000
327.27	57.1000
327.63	57.5000
328.00	58.0000
328.36	57.2500
328.73	57.7000
329.09	57.7500
329.46	57.3000
329.83	57.1500
330.19	57.9500
330.56	57.3000
330.92	57.4500
331.29	56.5500
331.65	57.9000
332.02	57.9000
332.38	57.9000
332.75	57.7000
333.11	57.1000
333.48	56.9000
333.84	57.4000
334.21	56.7000
334.58	56.7000
334.94	57.2500
335.31	57.3500
335.67	56.0500
336.04	57.6000
336.40	58.4000
336.77	57.3000
337.13	58.3000
337.50	57.7500
337.86	57.4000
338.22	56.4500
338.59	58.3000
338.95	58.3500
339.32	58.1000
339.68	57.5500
340.05	57.3500
340.41	56.6000
340.78	56.9000
341.14	57.5000
341.51	56.5500
341.87	56.7500
342.24	58.1500
342.60	58.3500
342.96	57.2000
343.33	57.4000
343.69	57.0000
344.06	57.4000
344.42	57.7000
344.79	57.4000
345.15	57.4000
345.51	57.8000
345.88	57.2000
346.24	58.1000
346.61	56.8000
346.97	58.3000
347.34	58.4000
347.70	56.9000
348.06	57.9000
348.43	58.1500
348.79	57.3000
349.16	58.5000
349.52	58.1000
349.88	58.6500
350.25	57.1500
350.61	57.2500
350.97	57.0000
351.34	57.6500
351.70	57.5000
352.07	56.8000
352.43	57.8500
352.79	58.0000
353.16	57.8500
353.52	57.2000
353.88	57.4000
354.25	57.6500
354.61	56.8500
354.97	58.5000
355.34	56.9500
355.70	57.5500
356.06	56.1000
356.43	56.2000
356.79	57.4000
357.15	57.1500
357.52	58.0500
357.88	58.1500
358.24	57.4500
358.60	57.5000
358.97	59.5000
359.33	57.9500
359.69	56.2000
360.06	56.3000
360.42	56.9000
360.78	57.1000
361.14	57.6000
361.51	57.5500
361.87	56.7500
362.23	58.3500
362.60	57.5500
362.96	57.6500
363.32	57.6000
363.68	57.5500
364.05	57.6500
364.41	57.5000
364.77	57.8000
365.13	57.6500
365.50	57.3500
365.86	57.8000
366.22	56.3500
366.58	57.1000
366.95	57.6000
367.31	58.8500
367.67	58.5500
368.03	56.9000
368.39	57.0000
368.76	55.7500
369.12	57.0000
369.48	56.6000
369.84	57.4500
370.20	57.7000
370.57	57.1500
370.93	57.2500
371.29	57.2000
371.65	55.9000
372.01	56.2500
372.38	57.8500
372.74	57.6000
373.10	57.5000
373.46	57.7000
373.82	57.4500
374.18	57.2000
374.55	57.7500
374.91	57.4000
375.27	57.9000
375.63	58.6000
375.99	58.5000
376.35	58.0000
376.71	58.2500
377.08	58.4000
377.44	57.0000
377.80	57.5500
378.16	56.9000
378.52	57.7500
378.88	58.3000
379.24	57.5500
379.60	57.4000
379.97	58.7000
380.33	58.0000
380.69	57.6500
381.05	57.0500
381.41	56.8500
381.77	57.7000
382.13	58.5000
382.49	57.5500
382.85	58.3000
383.21	58.6000
383.57	57.5500
383.94	57.4500
384.30	57.0500
384.66	58.4500
385.02	59.2000
385.38	58.6500
385.74	57.8000
386.10	58.7000
386.46	58.1500
386.82	57.3500
387.18	57.9000
387.54	58.3000
387.90	57.4500
388.26	57.9500
388.62	56.5000
388.98	57.0500
389.34	57.8500
389.70	57.3000
390.06	57.3500
390.42	57.4000
390.78	57.9000
391.14	57.0000
391.50	57.1500
391.86	57.3000
392.22	56.6500
392.58	56.9500
392.94	57.0000
393.30	56.9500
393.66	57.8000
394.02	56.9000
394.38	57.3500
394.74	56.7000
395.10	56.5500
395.46	57.8000
395.82	57.5000
396.18	58.2500
396.54	58.5500
396.90	57.3000
397.26	57.0500
397.62	58.2500
397.98	57.0000
398.34	57.7500
398.70	56.4500
399.05	57.5000
399.41	56.2500
399.77	57.2500
400.13	57.6500
400.49	57.8000
400.85	57.0500
401.21	58.0500
401.57	56.8000
401.93	56.8000
402.29	57.4500
402.65	56.9000
403.00	58.1000
403.36	57.8000
403.72	57.5000
404.08	57.5500
404.44	56.2000
404.80	57.2500
405.16	58.8000
405.52	57.3500
405.87	56.9000
406.23	58.8500
406.59	58.4000
406.95	57.3000
407.31	57.3000
407.67	57.7500
408.03	56.8500
408.38	57.5000
408.74	57.8500
409.10	58.0000
409.46	58.3500
409.82	58.2000
410.17	57.4500
410.53	57.2500
410.89	57.3000
411.25	58.6500
411.61	57.0500
411.97	57.1500
412.32	57.2500
412.68	58.1500
413.04	57.7000
413.40	58.5000
413.75	58.0000
414.11	56.9000
414.47	57.1000
414.83	57.4000
415.19	58.7500
415.54	57.7000
415.90	57.8500
416.26	58.3500
416.62	57.3500
416.97	57.2000
417.33	57.4000
417.69	57.6500
418.05	58.9000
418.40	58.5500
418.76	57.9000
419.12	57.3500
419.48	58.4000
419.83	57.0500
420.19	57.5000
420.55	56.4000
420.90	57.0500
421.26	56.8000
421.62	57.8500
421.98	57.7000
422.33	58.2500
422.69	57.4000
423.05	57.1000
423.40	58.0500
423.76	58.0000
424.12	57.1000
424.47	57.5000
424.83	58.7500
425.19	57.3000
425.54	58.4500
425.90	57.4500
426.26	57.6500
426.61	57.7500
426.97	57.7500
427.33	57.8500
427.68	58.1000
428.04	57.0000
428.40	57.0500
428.75	57.6000
429.11	58.2500
429.47	58.4000
429.82	57.7500
430.18	58.2500
430.53	57.2000
430.89	57.3500
431.25	58.3500
431.60	57.0500
431.96	57.7500
432.31	57.6500
432.67	57.9000
433.03	58.4000
433.38	56.3000
433.74	57.1000
434.09	57.3000
434.45	58.3500
434.81	57.4500
435.16	57.3500
435.52	57.5000
435.87	58.4500
436.23	57.9000
436.58	58.1000
436.94	57.6500
437.30	57.1000
437.65	57.0500
438.01	57.9500
438.36	56.7000
438.72	56.7000
439.07	56.4000
439.43	57.5000
439.78	57.5000
440.14	56.9000
440.49	57.1500
440.85	56.6000
441.20	58.2500
441.56	57.2000
441.91	57.4000
442.27	57.7500
442.62	57.9500
442.98	58.3500
443.33	57.6500
443.69	58.1000
444.04	70.3000
444.40	58.9500
444.75	58.5500
445.11	58.3500
445.46	57.9500
445.82	56.6500
446.17	58.2500
446.53	58.0500
446.88	57.7500
447.23	57.6500
447.59	57.5500
447.94	57.9500
448.30	58.0500
448.65	58.2500
449.01	57.6000
449.36	58.4000
449.72	58.0000
450.07	57.8500
450.42	57.9000
450.78	57.4000
451.13	57.0000
451.49	57.8500
451.84	57.5500
452.19	58.1000
452.55	57.2000
452.90	57.4500
453.26	58.4000
453.61	56.8500
453.96	56.8500
454.32	57.7500
454.67	57.2000
455.02	57.4000
455.38	58.0000
455.73	57.9500
456.09	57.3500
456.44	57.1500
456.79	58.1500
457.15	57.4000
457.50	56.4500
457.85	57.3000
458.21	58.0500
458.56	58.2500
458.91	59.2000
459.27	57.6500
459.62	58.3000
459.97	58.2000
460.32	57.9500
460.68	58.5000
461.03	58.2000
461.38	57.1500
461.74	57.7500
462.09	57.5500
462.44	57.3500
462.80	57.9500
463.15	59.0000
463.50	57.7000
463.85	57.7500
464.21	57.2500
464.56	57.2000
464.91	58.0500
465.26	57.0500
465.62	57.5000
465.97	58.7500
466.32	59.3000
466.67	58.3000
467.03	58.4000
467.38	58.5500
467.73	57.4500
468.08	56.4000
468.44	58.5500
468.79	57.7000
469.14	57.7500
469.49	56.7000
469.85	56.5500
470.20	58.2500
470.55	56.8000
470.90	56.8000
471.25	57.7000
471.61	58.2500
471.96	57.2500
472.31	58.3500
472.66	57.2000
473.01	57.8000
473.36	57.7500
473.72	57.3000
474.07	57.3000
474.42	58.1500
474.77	57.6000
475.12	56.9500
475.47	57.6000
475.83	56.8000
476.18	57.5000
476.53	57.6500
476.88	57.1500
477.23	57.4000
477.58	58.1500
477.93	57.3500
478.28	58.2500
478.64	58.0500
478.99	57.3500
479.34	58.5000
479.69	57.9000
480.04	57.3500
480.39	56.9500
480.74	56.5000
481.09	57.5000
481.44	58.1000
481.79	58.0000
482.15	58.2000
482.50	58.5500
482.85	58.6000
483.20	57.5000
483.55	57.4500
483.90	58.2000
484.25	58.8500
484.60	58.2500
484.95	58.4000
485.30	57.2000
485.65	56.8500
486.00	57.5500
486.35	56.9500
486.70	57.2000
487.05	57.5000
487.40	57.5500
487.75	58.3500
488.10	58.1500
488.45	57.7000
488.80	58.2000
489.15	58.0500
489.50	58.7000
489.85	57.6000
490.20	56.5000
490.55	57.5000
490.90	57.5000
491.25	56.0000
491.60	58.1000
491.95	58.7000
492.30	57.5500
492.65	57.4000
493.00	57.1500
493.35	57.2000
493.70	56.6000
494.05	57.3500
494.40	56.7500
494.75	57.8000
495.10	58.1000
495.45	58.2500
495.80	58.4500
496.15	57.7000
496.50	57.9000
496.84	57.2500
497.19	57.6500
497.54	58.1000
497.89	56.5500
498.24	58.3000
498.59	58.1000
498.94	57.8000
499.29	57.4500
499.64	57.2500
499.99	57.5000
500.33	58.1500
500.68	57.9000
501.03	57.2500
501.38	57.5000
501.73	57.3500
502.08	57.0500
502.43	57.0500
502.77	57.6000
503.12	57.7500
503.47	57.2000
503.82	57.4000
504.17	57.1000
504.52	58.0000
504.86	57.6500
505.21	57.9500
505.56	59.0000
505.91	57.0500
506.26	55.9500
506.61	57.4000
506.95	57.3500
507.30	58.2000
507.65	57.9500
508.00	57.4500
508.35	57.5000
508.69	58.1500
509.04	57.6500
509.39	58.3000
509.74	57.9500
510.08	57.7000
510.43	58.1000
510.78	57.7500
511.13	57.8500
511.47	58.5500
511.82	58.4500
512.17	57.9500
512.52	57.2500
512.86	57.7000
513.21	57.3500
513.56	58.1000
513.91	58.1500
514.25	58.1000
514.60	58.5500
514.95	59.3500
515.30	58.2000
515.64	57.7000
515.99	57.9000
516.34	58.2500
516.68	57.5000
517.03	58.8500
517.38	58.9000
517.72	59.6000
518.07	58.9500
518.42	58.0000
518.76	57.8500
519.11	59.1500
519.46	59.2000
519.80	59.5500
520.15	58.7500
520.50	59.6000
520.84	60.0500
521.19	59.9000
521.54	58.9500
521.88	59.6000
522.23	58.9500
522.58	60.3000
522.92	59.8000
523.27	58.8000
523.61	60.2500
523.96	60.1000
524.31	60.6500
524.65	59.8500
525.00	60.8500
525.34	60.4500
525.69	60.3500
526.04	61.7000
526.38	60.3000
526.73	61.5500
527.07	61.5000
527.42	61.5500
527.76	62.1500
528.11	62.3500
528.46	63.0000
528.80	62.7000
529.15	62.4500
529.49	62.1500
529.84	62.8500
530.18	62.9500
530.53	63.9000
530.87	63.8500
531.22	64.1500
531.56	64.1000
531.91	64.0500
532.25	65.5500
532.60	65.5000
532.94	65.6500
533.29	65.7500
533.63	65.6000
533.98	65.5500
534.32	66.6500
534.67	65.8000
535.01	67.1500
535.36	66.7000
535.70	67.9000
536.05	67.8000
536.39	67.9000
536.74	68.0000
537.08	70.7500
537.43	69.1000
537.77	70.4500
538.12	69.5500
538.46	69.9500
538.80	72.0500
539.15	73.3000
539.49	72.4000
539.84	73.0500
540.18	73.1500
540.53	73.0500
540.87	72.0500
541.21	74.2500
541.56	75.0000
541.90	75.7500
542.25	75.6500
542.59	75.8500
542.93	76.5500
543.28	77.7500
543.62	78.0500
543.97	79.2000
544.31	79.0500
544.65	79.3500
545.00	79.2500
545.34	80.2000
545.68	81.2500
546.03	81.4500
546.37	82.6000
546.71	83.7000
547.06	86.4500
547.40	86.0500
547.74	86.1500
548.09	86.2500
548.43	88.0500
548.77	87.1000
549.12	88.2000
549.46	87.5000
549.80	89.1000
550.15	89.3000
550.49	90.7000
550.83	91.7000
551.17	93.4000
551.52	93.8500
551.86	95.8000
552.20	96.2000
552.55	95.9500
552.89	97.5500
553.23	98.5500
553.57	98.9500
553.92	99.9500
554.26	101.9500
554.60	101.3500
554.94	104.0500
555.29	105.2500
555.63	105.0500
555.97	105.5500
556.31	105.5500
556.66	108.4000
557.00	107.8000
557.34	109.8000
557.68	110.9000
558.02	112.4000
558.37	112.1000
558.71	114.8000
559.05	116.1500
559.39	117.6000
559.73	120.3000
560.08	120.0500
560.42	122.4000
560.76	122.3500
561.10	123.1000
561.44	124.7000
561.78	125.5500
562.13	128.4500
562.47	129.7000
562.81	132.2500
563.15	132.0000
563.49	132.1000
563.83	133.8500
564.17	134.9000
564.52	135.2000
564.86	137.9500
565.20	139.2000
565.54	140.7500
565.88	144.0500
566.22	145.8500
566.56	147.6000
566.90	149.8500
567.24	154.7500
567.59	156.4000
567.93	161.0500
568.27	163.4500
568.61	169.0000
568.95	173.8500
569.29	175.3500
569.63	179.9500
569.97	184.1500
570.31	187.6000
570.65	192.0000
570.99	194.6000
571.33	195.8000
571.67	194.8500
572.01	199.5500
572.35	207.7000
572.69	213.4000
573.03	215.7500
573.37	220.7000
573.71	225.9500
574.05	226.5000
574.39	225.9000
574.73	227.2500
575.07	226.1000
575.41	233.6500
575.75	233.2500
576.09	242.9000
576.43	256.9500
576.77	266.4000
577.11	272.4500
577.45	268.5500
577.79	259.8500
578.13	259.0000
578.47	260.3500
578.81	263.9500
579.15	267.0500
579.49	268.7000
579.83	284.3000
580.17	305.1500
580.51	324.7500
580.85	336.8000
581.19	323.9500
581.53	312.8500
581.87	296.0500
582.20	284.5000
582.54	276.0500
582.88	277.5500
583.22	284.6500
583.56	297.4000
583.90	315.4500
584.24	325.9500
584.58	327.7500
584.92	321.4500
585.25	315.2000
585.59	312.7000
585.93	319.5500
586.27	328.8500
586.61	328.2500
586.95	331.5500
587.29	331.5500
587.62	325.3500
587.96	322.6500
588.30	316.8500
588.64	312.9000
588.98	317.2000
589.31	317.0000
589.65	312.0500
589.99	313.8500
590.33	316.6500
590.67	317.1000
591.01	325.3000
591.34	341.4000
591.68	359.0000
592.02	378.1000
592.36	383.8500
592.69	378.0500
593.03	372.2000
593.37	370.2000
593.71	374.1500
594.04	379.6000
594.38	383.9000
594.72	382.7500
595.06	372.6500
595.39	370.7000
595.73	374.2500
596.07	380.1000
596.41	381.9000
596.74	398.9500
597.08	390.8500
597.42	404.0000
597.76	413.3500
598.09	427.1000
598.43	428.6000
598.77	432.5500
599.10	440.2000
599.44	441.6000
599.78	446.7500
600.11	444.1000
600.45	450.1000
600.79	441.4500
601.12	444.9500
601.46	445.4500
601.80	456.1000
602.13	463.4000
602.47	477.3500
602.81	479.6500
603.14	470.6500
603.48	466.7500
603.82	464.6500
604.15	468.0000
604.49	481.2500
604.82	484.3500
605.16	486.0500
605.50	483.8000
605.83	491.6500
606.17	495.9500
606.50	502.3500
606.84	503.0000
607.18	502.9500
607.51	500.3500
607.85	505.5500
608.18	498.1500
608.52	508.1000
608.86	515.4000
609.19	527.4500
609.53	525.2500
609.86	526.2000
610.20	528.0000
610.53	529.5500
610.87	524.5000
611.20	531.0500
611.54	524.3000
611.87	532.8500
612.21	536.6000
612.54	532.2000
612.88	536.9500
613.21	545.7500
613.55	554.4000
613.88	560.7000
614.22	574.4000
614.55	568.0000
614.89	566.5500
615.22	559.9500
615.56	556.4000
615.89	557.3000
616.23	556.1500
616.56	553.5500
616.90	558.7000
617.23	556.5500
617.57	565.0000
617.90	556.3500
618.24	559.1500
618.57	565.6500
618.90	568.9000
619.24	576.3000
619.57	565.4500
619.91	562.7000
620.24	548.8000
620.58	563.0500
620.91	575.6000
621.24	584.2000
621.58	591.3000
621.91	595.0000
622.25	602.8500
622.58	604.1500
622.91	607.9500
623.25	601.3500
623.58	609.6500
623.91	605.1000
624.25	604.2500
624.58	602.8500
624.92	600.0500
625.25	599.8000
625.58	596.5000
625.92	604.1500
626.25	608.2000
626.58	616.2000
626.92	606.1500
627.25	607.2500
627.58	604.3000
627.91	612.4500
628.25	619.6500
628.58	622.4000
628.91	622.7500
629.25	623.3000
629.58	620.5000
629.91	620.5500
630.25	621.8000
630.58	615.7500
630.91	614.5500
631.24	615.2000
631.58	616.8000
631.91	619.5500
632.24	613.1500
632.57	617.4500
632.91	626.5500
633.24	619.8000
633.57	622.9000
633.90	624.7000
634.24	623.7500
634.57	628.5000
634.90	635.3000
635.23	633.7000
635.56	645.2500
635.90	646.1000
636.23	645.2000
636.56	645.9500
636.89	656.8000
637.22	653.0000
637.56	655.7000
637.89	648.1500
638.22	652.5500
638.55	652.2500
638.88	643.3000
639.21	650.8000
639.55	652.2500
639.88	650.9000
640.21	652.5000
640.54	650.9000
640.87	650.8500
641.20	652.8000
641.53	655.5000
641.87	656.4500
642.20	658.2500
642.53	660.2500
642.86	671.1000
643.19	669.5000
643.52	668.9500
643.85	671.5500
644.18	671.7500
644.51	669.8500
644.84	675.0500
645.18	674.3500
645.51	675.0500
645.84	677.3000
646.17	672.5000
646.50	678.4000
646.83	689.5500
647.16	691.3500
647.49	709.6000
647.82	715.5000
648.15	718.9000
648.48	725.1500
648.81	722.1000
649.14	712.2000
649.47	710.6500
649.80	708.2000
650.13	706.8000
650.46	713.9000
650.79	719.2500
651.12	723.9000
651.45	723.1500
651.78	721.3500
652.11	727.9500
652.44	733.6000
652.77	730.9500
653.10	732.9000
653.43	733.5000
653.76	736.4500
654.09	762.1000
654.42	1190.9000
654.75	2118.5500
655.08	2682.2500
655.41	2905.1001
655.74	2347.8501
656.07	1843.2000
656.39	1511.4500
656.72	1263.5500
657.05	1047.2500
657.38	906.6500
657.71	820.7500
658.04	783.8500
658.37	766.6000
658.70	757.0000
659.03	747.6000
659.36	753.5000
659.68	751.4000
660.01	747.4500
660.34	746.8000
660.67	747.3000
661.00	753.7000
661.33	744.8000
661.66	748.2000
661.98	751.3000
662.31	749.5000
662.64	753.4500
662.97	757.8500
663.30	758.1000
663.63	758.9000
663.95	759.2000
664.28	763.1500
664.61	760.9500
664.94	766.2000
665.27	765.0000
665.59	759.7000
665.92	763.3500
666.25	750.4000
666.58	747.1500
666.91	765.6000
667.23	758.3500
667.56	752.9500
667.89	758.2000
668.22	763.7500
668.54	768.4000
668.87	772.9500
669.20	770.6500
669.53	770.2000
669.85	769.7000
670.18	771.5000
670.51	780.2500
670.83	796.3000
671.16	811.9500
671.49	821.8000
671.82	815.2500
672.14	801.3000
672.47	790.7000
672.80	785.9500
673.12	786.9000
673.45	792.3000
673.78	775.4500
674.10	783.9000
674.43	776.4500
674.76	778.6000
675.08	789.4000
675.41	781.1000
675.74	781.8000
676.06	786.9000
676.39	783.4000
676.72	789.3500
677.04	794.0500
677.37	803.5500
677.69	797.4500
678.02	791.6000
678.35	799.3000
678.67	799.6500
679.00	816.1500
679.32	815.5000
679.65	798.7000
679.98	797.6000
680.30	795.6000
680.63	798.2500
680.95	801.3500
681.28	794.8500
681.60	777.0500
681.93	774.1500
682.26	770.5000
682.58	775.7000
682.91	786.4000
683.23	784.8500
683.56	792.8500
683.88	804.2500
684.21	811.4000
684.53	826.2500
684.86	828.3500
685.18	825.4500
685.51	816.7000
685.83	803.0500
686.16	793.7000
686.48	790.7500
686.81	794.9500
687.13	790.6500
687.46	783.3000
687.78	781.2000
688.11	770.3500
688.43	768.7500
688.76	774.8500
689.08	770.1500
689.41	766.8000
689.73	767.8500
690.05	769.0500
690.38	779.9500
690.70	785.7000
691.03	777.3500
691.35	776.8000
691.68	769.4000
692.00	776.0000
692.32	782.0000
692.65	775.0000
692.97	774.9500
693.29	764.1000
693.62	745.6000
693.94	753.0000
694.27	750.3500
694.59	734.9000
694.91	745.2000
695.24	740.5000
695.56	729.2500
695.88	747.1000
696.21	752.5500
696.53	762.7000
696.85	772.5500
697.18	766.4000
697.50	755.0500
697.82	755.4500
698.15	749.7500
698.47	741.7500
698.79	741.3500
699.12	733.7500
699.44	715.9500
699.76	713.4500
700.09	716.7000
700.41	717.7500
700.73	710.3000
701.05	720.0000
701.38	718.5000
701.70	726.9000
702.02	730.9000
702.34	724.0000
702.67	721.8500
702.99	721.6500
703.31	714.8500
703.63	718.3000
703.96	714.9500
704.28	705.3500
704.60	693.4000
704.92	705.5000
705.25	705.8000
705.57	719.0500
705.89	731.7000
706.21	748.0000
706.53	755.3000
706.86	758.7500
707.18	757.1000
707.50	754.5000
707.82	740.7000
708.14	739.7000
708.46	740.3000
708.79	724.1500
709.11	734.6500
709.43	727.6000
709.75	723.4000
710.07	723.5000
710.39	729.5000
710.71	718.6000
711.04	706.0500
711.36	705.7500
711.68	703.1000
712.00	703.8000
712.32	711.9000
712.64	707.1000
712.96	714.6500
713.28	716.5500
713.60	725.0000
713.92	713.0000
714.24	717.8000
714.57	705.2000
714.89	701.7500
715.21	697.7000
715.53	683.0500
715.85	680.0000
716.17	675.3500
716.49	673.7000
716.81	671.3500
717.13	678.8000
717.45	679.8500
717.77	681.2500
718.09	682.2000
718.41	687.8500
718.73	687.7500
719.05	683.0500
719.37	665.1000
719.69	673.5000
720.01	675.1500
720.33	673.9500
720.65	668.4500
720.97	671.0000
721.29	668.4500
721.61	671.8000
721.93	666.9000
722.25	661.5000
722.57	655.7000
722.89	658.0500
723.21	658.7500
723.52	650.9500
723.84	641.6000
724.16	659.1500
724.48	665.3000
724.80	672.4500
725.12	667.5000
725.44	662.8000
725.76	663.0500
726.08	664.5000
726.40	650.8000
726.72	652.9000
727.03	657.7500
727.35	654.2000
727.67	645.4000
727.99	650.4500
728.31	650.8000
728.63	648.4500
728.95	652.6000
729.26	648.4500
729.58	651.0500
729.90	661.5000
730.22	657.3500
730.54	663.2500
730.86	671.1000
731.17	669.6500
731.49	658.7500
731.81	656.6000
732.13	651.0500
732.45	644.0000
732.76	645.4500
733.08	650.5000
733.40	659.3000
733.72	657.5500
734.03	648.5500
734.35	645.9500
734.67	646.4000
734.99	636.6000
735.30	642.0500
735.62	637.8500
735.94	634.6500
736.26	629.6000
736.57	624.8500
736.89	628.6000
737.21	613.0000
737.53	602.7500
737.84	605.5500
738.16	603.1000
738.48	618.3000
738.79	629.2500
739.11	624.9500
739.43	613.3500
739.74	604.5000
740.06	591.3500
740.38	585.5000
740.69	577.4000
741.01	573.2500
741.33	569.6000
741.64	573.3500
741.96	569.9000
742.28	573.3000
742.59	560.1500
742.91	556.9500
743.23	548.0000
743.54	550.4500
743.86	548.9500
744.17	538.9500
744.49	539.1000
744.81	538.4500
745.12	537.4500
745.44	531.9000
745.75	535.6000
746.07	534.2000
746.38	535.7500
746.70	536.1500
747.02	536.0500
747.33	525.9500
747.65	525.7500
747.96	523.2000
748.28	524.6500
748.59	526.1000
748.91	528.5000
749.22	537.1500
749.54	539.5000
749.85	544.8000
750.17	540.7500
750.48	536.9000
750.80	529.7500
751.11	527.6000
751.43	526.3500
751.74	521.7000
752.06	519.7500
752.37	517.8000
752.69	520.8000
753.00	525.6000
753.32	529.2500
753.63	531.4000
753.95	522.9500
754.26	519.5000
754.58	526.0000
754.89	528.5000
755.20	531.6000
755.52	536.9500
755.83	539.8500
756.15	548.0500
756.46	557.9500
756.78	562.7500
757.09	568.0500
757.40	570.7000
757.72	556.5500
758.03	543.3500
758.34	538.3500
758.66	543.5500
758.97	542.2000
759.29	544.4000
759.60	546.9000
759.91	546.6000
760.23	550.9500
760.54	549.5000
760.85	534.8500
761.17	521.4500
761.48	516.8000
761.79	502.3500
762.11	506.3000
762.42	509.1500
762.73	517.8500
763.05	514.4500
763.36	518.8000
763.67	526.2500
763.98	530.0000
764.30	532.9500
764.61	537.6500
764.92	526.6500
765.23	513.9500
765.55	498.5500
765.86	485.7500
766.17	482.8000
766.48	474.0500
766.80	468.0500
767.11	480.1000
767.42	474.7000
767.73	486.1500
768.05	499.3000
768.36	504.7500
768.67	506.3000
768.98	492.5000
769.29	490.1000
769.61	483.5500
769.92	475.3500
770.23	479.5500
770.54	474.5500
770.85	476.0500
771.17	471.9000
771.48	468.8500
771.79	460.7500
772.10	455.7000
772.41	458.2000
772.72	450.8500
773.03	444.8500
773.35	441.6000
773.66	435.5000
773.97	434.5500
774.28	432.2000
774.59	425.6000
774.90	425.3500
775.21	423.8500
775.52	420.8000
775.83	420.2500
776.15	419.3000
776.46	414.6000
776.77	414.7000
777.08	415.9000
777.39	415.2500
777.70	412.8500
778.01	422.6000
778.32	422.3500
778.63	426.6500
778.94	422.1000
779.25	419.2500
779.56	413.1500
779.87	409.9500
780.18	411.5000
780.49	416.9000
780.80	427.1000
781.11	423.4000
781.42	416.0500
781.73	413.3500
782.04	405.0500
782.35	402.0500
782.66	402.3000
782.97	401.9500
783.28	406.1500
783.59	396.9500
783.90	385.9000
784.21	382.0500
784.52	383.6000
784.83	383.8000
785.14	387.2500
785.45	384.2500
785.76	381.3500
786.06	378.4000
786.37	379.9500
786.68	376.1000
786.99	372.9000
787.30	376.6500
787.61	379.5500
787.92	377.7500
788.23	376.9500
788.54	376.4500
788.84	371.9000
789.15	365.8500
789.46	360.2500
789.77	353.4000
790.08	352.8000
790.39	346.0500
790.70	353.6500
791.00	352.8500
791.31	344.6500
791.62	345.7500
791.93	341.8500
792.24	342.3000
792.54	338.3000
792.85	336.3500
793.16	351.1000
793.47	360.0000
793.78	368.3000
794.08	365.7000
794.39	354.0000
794.70	350.7500
795.01	343.5000
795.31	332.8000
795.62	323.1000
795.93	320.4000
796.24	320.1500
796.54	317.6000
796.85	321.8500
797.16	318.3000
797.47	313.3500
797.77	313.2000
798.08	309.9500
798.39	312.9000
798.69	313.5000
799.00	308.2000
799.31	305.9000
799.62	304.1000
799.92	303.0000
800.23	300.2500
800.54	302.2000
800.84	299.9500
801.15	296.7500
801.46	295.5500
801.76	292.0500
802.07	287.2500
802.37	290.1000
802.68	290.6000
802.99	289.9500
803.29	286.3500
803.60	279.7000
803.91	280.5000
804.21	282.3000
804.52	280.7000
804.82	283.6500
805.13	287.1000
805.44	288.4500
805.74	293.6000
806.05	296.1500
806.35	287.3000
806.66	280.3000
806.96	280.0000
807.27	277.2000
807.57	277.8500
807.88	277.5000
808.19	270.6000
808.49	270.0000
808.80	266.4500
809.10	264.8000
809.41	266.2500
809.71	260.9000
810.02	261.1500
810.32	261.6500
810.63	262.0500
810.93	263.3500
811.24	257.8500
811.54	255.9500
811.85	254.0000
812.15	250.9000
812.45	248.9500
812.76	248.2500
813.06	251.4000
813.37	254.0500
813.67	259.3000
813.98	253.1500
814.28	245.8500
814.58	245.4500
814.89	240.9500
815.19	240.7500
815.50	238.7500
815.80	238.4500
816.11	237.8000
816.41	238.6000
816.71	240.6500
817.02	238.7500
817.32	238.6000
817.62	235.3500
817.93	232.7500
818.23	229.9000
818.53	226.7500
818.84	228.8500
819.14	225.7000
819.44	227.6000
819.75	230.4000
820.05	231.2500
820.35	233.4500
820.66	230.9500
820.96	229.2500
821.26	226.5500
821.57	223.3500
821.87	221.6000
822.17	219.6500
822.48	219.8000
822.78	218.5500
823.08	216.7500
823.38	217.6000
823.69	212.3500
823.99	210.6500
824.29	211.6000
824.59	209.3500
824.90	214.0500
825.20	213.0000
825.50	210.9500
825.80	209.8500
826.10	213.7500
826.41	211.5000
826.71	211.6500
827.01	214.4500
827.31	213.1500
827.61	208.9000
827.92	206.7000
828.22	205.5000
828.52	203.7500
828.82	202.7500
829.12	201.4500
829.42	201.2000
829.73	199.6500
830.03	198.0000
830.33	196.0000
830.63	193.1500
830.93	190.8500
831.23	189.2500
831.53	190.5500
831.83	188.8500
832.14	187.2000
832.44	190.4000
832.74	190.0000
833.04	190.8500
833.34	190.0500
833.64	189.8000
833.94	187.6500
834.24	189.2000
834.54	188.6500
834.84	186.1000
835.14	185.3000
835.44	182.7000
835.74	182.0500
836.04	180.5500
836.34	180.3500
836.64	180.7500
836.95	179.6500
837.25	177.1000
837.55	177.6500
837.85	175.8000
838.15	176.6000
838.45	173.9500
838.74	174.7000
839.04	170.8000
839.34	171.8000
839.64	171.2000
839.94	171.8500
840.24	170.6500
840.54	171.8000
840.84	169.5500
841.14	168.1500
841.44	167.0000
841.74	168.3500
842.04	165.9000
842.34	166.5500
842.64	163.9500
842.94	164.6500
843.24	163.2500
843.53	161.4500
843.83	162.7500
844.13	162.0000
844.43	159.4500
844.73	158.3000
845.03	158.4500
845.33	159.7000
845.63	158.1000
845.92	156.1000
846.22	156.5500
846.52	155.8000
846.82	155.1000
847.12	154.9500
847.42	154.7000
847.71	155.2000
848.01	154.5500
848.31	154.0500
848.61	151.5500
848.91	152.1500
849.20	151.9500
849.50	150.7000
849.80	150.2500
850.10	150.9000
850.39	148.9500
850.69	150.1000
850.99	147.9000
851.29	147.8500
851.59	148.1000
851.88	146.8000
852.18	149.5000
852.48	149.3000
852.77	148.4000
853.07	149.0000
853.37	148.9500
853.67	148.7500
853.96	150.3500
854.26	148.6500
854.56	147.4500
854.85	145.6500
855.15	145.8000
855.45	143.8000
855.74	142.4500
856.04	141.9000
856.34	141.6000
856.63	143.3500
856.93	140.6000
857.23	140.2500
857.52	137.4500
857.82	136.8000
858.11	137.0500
858.41	137.3000
858.71	137.4500
859.00	133.8000
859.30	135.6500
859.59	134.3500
859.89	132.4500
860.19	131.8500
860.48	131.6500
860.78	131.0500
861.07	130.8500
861.37	131.6000
861.66	130.7500
861.96	129.7000
862.26	130.8500
862.55	128.3000
862.85	128.4500
863.14	128.6000
863.44	128.4000
863.73	128.1000
864.03	126.1500
864.32	127.9000
864.62	125.2500
864.91	126.3500
865.21	121.9500
865.50	121.3000
865.80	122.1500
866.09	121.6000
866.39	121.9000
866.68	121.6000
866.97	122.1000
867.27	121.9500
867.56	120.1500
867.86	118.7500
868.15	117.2500
868.45	116.9500
868.74	117.4500
869.03	117.1500
869.33	116.6000
869.62	116.4500
869.92	117.2500
870.21	114.3500
870.50	115.2500
870.80	114.9000
871.09	114.9500
871.39	114.2000
871.68	114.3500
871.97	112.0500
872.27	113.8000
872.56	110.5500
872.85	111.5000
873.15	110.6000
873.44	110.2500
873.73	110.7500
874.03	110.0500
874.32	108.9000
874.61	108.7000
874.90	107.5000
875.20	106.7500
875.49	107.7000
875.78	107.0000
>>>>>End Spectral Data<<<<<
