OOIBase32 Version 1.0.0.8 Data File
++++++++++++++++++++++++++++++++++++
Date: Monday, January 21, 1980, 09:04:23
User: Valued Ocean Optics Customer
Spectrometer Serial Number: Unknown
Spectrometer Channel: Master
Integration Time (msec): 3
Spectra Averaged: 20
Boxcar Smoothing: 0
Correct for Electrical Dark: Disabled
Time Normalized: Disabled
Dual-beam Reference: Disabled
Reference Channel: Master
>>>>>Begin Spectral Data<<<<<
179.00	0.0000
179.38	0.0000
179.75	54.3500
180.13	55.9500
180.51	55.1000
180.88	55.8500
181.26	56.8000
181.64	56.7500
182.02	56.7000
182.39	56.1000
182.77	55.4000
183.15	54.7000
183.52	55.7500
183.90	55.4000
184.28	55.3500
184.65	55.5500
185.03	55.1000
185.41	55.1000
185.78	55.5500
186.16	55.3500
186.53	55.4500
186.91	57.2000
187.29	56.9000
187.66	55.7500
188.04	57.0000
188.42	56.3000
188.79	56.1500
189.17	56.6000
189.55	56.6000
189.92	57.7500
190.30	57.0000
190.67	56.0500
191.05	56.7000
191.43	56.6500
191.80	56.3500
192.18	57.0500
192.56	56.5500
192.93	56.3500
193.31	57.1000
193.68	55.6500
194.06	56.0500
194.44	56.5500
194.81	56.4500
195.19	56.8500
195.56	57.4000
195.94	57.0500
196.32	55.6500
196.69	55.4500
197.07	55.0000
197.44	56.7000
197.82	55.6500
198.19	56.6000
198.57	56.5500
198.95	56.8500
199.32	56.3000
199.70	57.1500
200.07	56.8000
200.45	56.2500
200.82	56.7000
201.20	57.4500
201.57	55.8500
201.95	56.5000
202.33	56.7500
202.70	57.2000
203.08	56.8000
203.45	56.6500
203.83	56.9500
204.20	56.5500
204.58	56.3500
204.95	57.4500
205.33	56.6500
205.70	57.3000
206.08	56.7500
206.45	55.8000
206.83	56.2500
207.20	56.9000
207.58	57.0000
207.95	56.8500
208.33	57.0500
208.70	57.1000
209.08	56.6000
209.45	57.2000
209.83	55.8000
210.20	56.5000
210.58	56.8500
210.95	57.4000
211.33	57.1500
211.70	56.4000
212.08	56.3500
212.45	57.9500
212.83	57.7000
213.20	58.0000
213.58	56.2500
213.95	56.4500
214.33	56.8500
214.70	57.2500
215.07	56.8000
215.45	57.2000
215.82	56.0500
216.20	55.8000
216.57	57.1000
216.95	56.6500
217.32	57.5500
217.70	56.5000
218.07	57.1000
218.44	57.2500
218.82	56.1000
219.19	57.8000
219.57	56.8500
219.94	59.0500
220.32	56.9000
220.69	57.2000
221.06	57.0500
221.44	57.5000
221.81	56.4000
222.19	57.5500
222.56	57.2000
222.93	56.8500
223.31	56.9500
223.68	58.1500
224.06	56.7000
224.43	57.9500
224.80	57.7500
225.18	56.8500
225.55	57.6000
225.92	57.8000
226.30	56.6000
226.67	57.0000
227.05	56.2500
227.42	57.1000
227.79	56.7500
228.17	56.5000
228.54	57.1000
228.91	56.9500
229.29	57.7500
229.66	57.5000
230.03	56.9000
230.41	56.4000
230.78	57.2000
231.15	57.1000
231.53	57.0000
231.90	58.2500
232.27	57.4500
232.65	57.3000
233.02	56.7000
233.39	56.6000
233.77	57.0500
234.14	57.4500
234.51	56.3000
234.89	56.5000
235.26	56.8000
235.63	57.9000
236.01	56.6500
236.38	58.5000
236.75	56.9500
237.12	57.7500
237.50	56.0500
237.87	57.0500
238.24	57.7000
238.62	56.6000
238.99	56.5500
239.36	56.7500
239.73	57.1000
240.11	57.4500
240.48	56.8500
240.85	57.4500
241.23	56.6500
241.60	57.0500
241.97	56.6500
242.34	57.5000
242.72	56.4000
243.09	57.3000
243.46	57.3500
243.83	57.6500
244.21	57.4500
244.58	56.0500
244.95	57.3500
245.32	57.7000
245.70	58.3500
246.07	56.9000
246.44	57.3500
246.81	57.6500
247.18	57.3500
247.56	57.2000
247.93	56.7000
248.30	56.4500
248.67	57.4500
249.04	56.3500
249.42	56.6500
249.79	58.1500
250.16	57.4000
250.53	57.4500
250.90	57.0500
251.28	57.0000
251.65	56.4500
252.02	57.4000
252.39	57.4500
252.76	57.4000
253.14	57.2000
253.51	56.6500
253.88	57.5500
254.25	56.9500
254.62	57.1000
254.99	57.3000
255.37	57.7500
255.74	56.7500
256.11	55.2500
256.48	57.2000
256.85	56.7500
257.22	56.9000
257.59	57.2000
257.97	57.2000
258.34	57.4000
258.71	57.4000
259.08	57.5000
259.45	57.4000
259.82	56.5000
260.19	56.2500
260.56	56.9500
260.94	55.8500
261.31	57.1000
261.68	57.7500
262.05	58.0500
262.42	56.9000
262.79	57.3000
263.16	56.9500
263.53	56.5000
263.90	56.2000
264.28	57.3500
264.65	57.3000
265.02	54.9500
265.39	56.9000
265.76	57.0500
266.13	57.5000
266.50	58.0500
266.87	58.2000
267.24	56.5500
267.61	57.2000
267.98	55.8500
268.35	56.2000
268.72	56.4500
269.09	56.8500
269.46	56.7000
269.84	57.1000
270.21	57.0000
270.58	57.9500
270.95	56.8500
271.32	56.9500
271.69	57.1500
272.06	56.2000
272.43	57.3000
272.80	57.0000
273.17	56.9000
273.54	58.2000
273.91	57.5000
274.28	57.4500
274.65	56.3000
275.02	56.6000
275.39	56.8000
275.76	56.4500
276.13	57.1000
276.50	57.3000
276.87	57.7500
277.24	57.9000
277.61	56.8500
277.98	57.9500
278.35	58.0500
278.72	57.5500
279.09	56.8000
279.46	56.8000
279.83	56.8000
280.20	57.4000
280.57	57.0500
280.94	58.2000
281.31	56.6000
281.67	57.5000
282.04	57.3000
282.41	57.3000
282.78	57.1500
283.15	56.8500
283.52	57.3500
283.89	58.8000
284.26	57.8500
284.63	57.9500
285.00	57.0500
285.37	56.8000
285.74	56.7500
286.11	58.1000
286.48	56.5500
286.85	57.0000
287.21	57.1500
287.58	56.6500
287.95	56.8000
288.32	57.0500
288.69	56.9500
289.06	57.1500
289.43	56.7000
289.80	58.3000
290.17	57.3500
290.54	58.0500
290.90	56.6500
291.27	57.4500
291.64	56.5000
292.01	56.8000
292.38	57.8500
292.75	56.5500
293.12	56.9500
293.48	56.5500
293.85	57.3000
294.22	56.9000
294.59	57.6500
294.96	56.1500
295.33	56.9000
295.70	57.5000
296.06	57.5000
296.43	56.5500
296.80	56.7500
297.17	58.1000
297.54	56.7500
297.91	58.0500
298.27	57.1500
298.64	57.0000
299.01	57.8000
299.38	57.5500
299.75	57.5500
300.11	58.3000
300.48	57.5000
300.85	57.1000
301.22	56.9000
301.59	57.4000
301.95	57.0500
302.32	57.0500
302.69	57.0000
303.06	56.7500
303.43	57.2500
303.79	57.6000
304.16	57.4500
304.53	57.6500
304.90	58.0500
305.26	58.4000
305.63	56.0000
306.00	58.0500
306.37	57.3500
306.73	57.3500
307.10	56.2500
307.47	56.8000
307.84	57.2000
308.20	57.9500
308.57	57.2000
308.94	57.4500
309.31	57.4500
309.67	58.0000
310.04	57.9000
310.41	56.9500
310.77	56.5500
311.14	57.5500
311.51	56.7500
311.88	58.2500
312.24	56.5500
312.61	57.6000
312.98	56.8500
313.34	56.6500
313.71	57.5000
314.08	58.1000
314.44	57.6000
314.81	56.9500
315.18	57.9500
315.55	56.5000
315.91	56.9500
316.28	57.7500
316.65	57.4500
317.01	57.4500
317.38	57.5000
317.75	57.1000
318.11	56.6500
318.48	57.1500
318.84	58.0000
319.21	56.2500
319.58	56.8500
319.94	58.1500
320.31	57.3000
320.68	57.4000
321.04	57.5500
321.41	58.1000
321.78	57.3000
322.14	57.6000
322.51	57.4000
322.87	57.4500
323.24	58.3500
323.61	59.2000
323.97	57.3000
324.34	57.8500
324.70	57.0500
325.07	57.6500
325.44	57.1500
325.80	56.9500
326.17	56.6000
326.53	57.9500
326.90	57.6500
327.27	57.9500
327.63	57.3000
328.00	56.8000
328.36	57.0000
328.73	57.3500
329.09	57.6000
329.46	58.6000
329.83	56.5000
330.19	56.7500
330.56	57.7000
330.92	57.9000
331.29	57.8000
331.65	57.4500
332.02	57.7000
332.38	56.9500
332.75	56.8500
333.11	58.0500
333.48	57.7500
333.84	58.2500
334.21	57.9000
334.58	57.1500
334.94	57.5500
335.31	56.9500
335.67	57.6000
336.04	58.4000
336.40	57.1500
336.77	57.9000
337.13	57.8500
337.50	57.3500
337.86	57.9000
338.22	57.2000
338.59	58.4000
338.95	57.6000
339.32	58.0000
339.68	57.5000
340.05	58.2500
340.41	58.6500
340.78	57.2000
341.14	57.3500
341.51	57.3000
341.87	58.3500
342.24	59.0500
342.60	58.2000
342.96	57.7500
343.33	58.0500
343.69	57.8500
344.06	58.3500
344.42	57.5500
344.79	59.4000
345.15	57.6000
345.51	57.7500
345.88	57.1500
346.24	58.7000
346.61	57.2500
346.97	57.6000
347.34	58.4000
347.70	57.8000
348.06	57.4500
348.43	57.3500
348.79	57.0000
349.16	59.0500
349.52	57.5500
349.88	58.0500
350.25	58.1500
350.61	59.1500
350.97	58.4500
351.34	57.7000
351.70	57.8000
352.07	57.8000
352.43	59.4000
352.79	58.5000
353.16	58.8500
353.52	58.6500
353.88	58.7500
354.25	59.1000
354.61	58.7000
354.97	58.3500
355.34	57.8000
355.70	57.9000
356.06	57.9000
356.43	59.7000
356.79	58.7000
357.15	59.2000
357.52	59.4500
357.88	58.8000
358.24	57.8000
358.60	59.2500
358.97	58.8500
359.33	58.9000
359.69	59.8000
360.06	59.4500
360.42	58.5000
360.78	58.3500
361.14	58.5000
361.51	59.8500
361.87	59.8500
362.23	61.0500
362.60	61.8500
362.96	65.2500
363.32	76.7500
363.68	96.6500
364.05	112.8500
364.41	122.3000
364.77	126.5000
365.13	116.1500
365.50	100.3000
365.86	85.6500
366.22	74.0000
366.58	68.2500
366.95	62.8000
367.31	62.0000
367.67	61.9000
368.03	60.1500
368.39	60.3500
368.76	59.7500
369.12	59.8000
369.48	59.8000
369.84	59.8000
370.20	60.2000
370.57	59.6000
370.93	59.7000
371.29	60.2000
371.65	60.1000
372.01	59.3500
372.38	59.7000
372.74	59.4000
373.10	60.0500
373.46	59.5000
373.82	60.3500
374.18	60.4500
374.55	60.0500
374.91	59.9500
375.27	60.6500
375.63	60.0000
375.99	60.0500
376.35	60.6000
376.71	60.1000
377.08	60.1000
377.44	60.6000
377.80	61.1000
378.16	61.0000
378.52	60.9000
378.88	61.2000
379.24	61.8000
379.60	62.3000
379.97	62.2000
380.33	60.3000
380.69	60.1000
381.05	60.8500
381.41	59.6500
381.77	59.7500
382.13	61.3000
382.49	61.5500
382.85	61.0000
383.21	60.2500
383.57	59.8500
383.94	60.0000
384.30	61.0000
384.66	60.3000
385.02	59.1500
385.38	59.4000
385.74	59.7500
386.10	58.9500
386.46	59.2500
386.82	59.8500
387.18	60.4500
387.54	59.8500
387.90	60.2500
388.26	60.3500
388.62	59.4500
388.98	60.7000
389.34	59.9000
389.70	61.1500
390.06	60.8000
390.42	59.5500
390.78	60.4000
391.14	59.2000
391.50	59.9000
391.86	59.8000
392.22	60.5500
392.58	60.4500
392.94	59.5000
393.30	59.9000
393.66	60.3500
394.02	61.1000
394.38	59.2500
394.74	61.4000
395.10	61.3500
395.46	60.9000
395.82	60.9000
396.18	60.9000
396.54	61.9000
396.90	61.8500
397.26	62.4000
397.62	62.0500
397.98	63.1500
398.34	62.9500
398.70	63.4000
399.05	63.6000
399.41	63.3000
399.77	64.8500
400.13	64.9500
400.49	66.0000
400.85	67.4500
401.21	66.9500
401.57	69.4000
401.93	73.2000
402.29	82.4000
402.65	129.4000
403.00	265.5000
403.36	426.6500
403.72	506.8500
404.08	578.0500
404.44	420.6500
404.80	306.5000
405.16	185.2500
405.52	113.2500
405.87	95.5500
406.23	104.7500
406.59	110.8500
406.95	117.8000
407.31	116.8000
407.67	108.8500
408.03	96.0000
408.38	86.2000
408.74	82.5500
409.10	82.2500
409.46	79.9500
409.82	81.3000
410.17	83.0000
410.53	83.5500
410.89	85.3500
411.25	82.9500
411.61	85.4500
411.97	87.5500
412.32	86.6000
412.68	90.8500
413.04	91.1000
413.40	88.0500
413.75	91.8500
414.11	94.0000
414.47	94.8000
414.83	100.2500
415.19	99.5000
415.54	97.1500
415.90	102.9500
416.26	102.9000
416.62	105.5500
416.97	104.1000
417.33	109.2500
417.69	110.8000
418.05	109.6000
418.40	108.3000
418.76	112.3000
419.12	118.6000
419.48	117.1500
419.83	122.5500
420.19	116.0000
420.55	118.5000
420.90	130.2500
421.26	125.8500
421.62	125.0500
421.98	132.6000
422.33	138.8500
422.69	142.2000
423.05	145.2000
423.40	134.2000
423.76	134.4000
424.12	147.3500
424.47	149.0500
424.83	149.5000
425.19	150.8000
425.54	151.2000
425.90	159.0000
426.26	164.9500
426.61	168.2500
426.97	148.9000
427.33	168.5500
427.68	170.3000
428.04	181.3000
428.40	190.7000
428.75	194.6500
429.11	183.4000
429.47	199.3000
429.82	200.7500
430.18	202.6000
430.53	198.3500
430.89	198.7500
431.25	207.1000
431.60	215.5000
431.96	214.5000
432.31	216.8500
432.67	239.1000
433.03	252.7000
433.38	271.7500
433.74	390.0000
434.09	787.7500
434.45	1215.6500
434.81	1521.6500
435.16	1766.0500
435.52	1412.1000
435.87	1020.9500
436.23	664.8500
436.58	401.1000
436.94	306.2500
437.30	271.3500
437.65	274.7500
438.01	261.5000
438.36	262.2500
438.72	258.4000
439.07	250.2500
439.43	250.7500
439.78	267.5500
440.14	278.9000
440.49	255.9000
440.85	259.9000
441.20	270.9000
441.56	265.3500
441.91	285.2000
442.27	268.5000
442.62	267.5500
442.98	273.6500
443.33	269.1000
443.69	275.4000
444.04	270.3000
444.40	258.3500
444.75	284.3500
445.11	284.1000
445.46	293.9000
445.82	290.2000
446.17	271.8500
446.53	283.6000
446.88	313.5500
447.23	269.0000
447.59	270.6500
447.94	268.1500
448.30	291.1500
448.65	279.8000
449.01	292.8500
449.36	292.6500
449.72	312.9000
450.07	320.4000
450.42	308.7500
450.78	296.6000
451.13	310.5000
451.49	297.1500
451.84	285.0000
452.19	285.5500
452.55	302.9000
452.90	301.6000
453.26	320.0000
453.61	327.2500
453.96	276.1500
454.32	306.6500
454.67	306.9500
455.02	284.0000
455.38	295.0000
455.73	291.9000
456.09	312.3000
456.44	309.0500
456.79	299.2000
457.15	296.6000
457.50	279.1000
457.85	288.3000
458.21	282.4500
458.56	292.8000
458.91	284.7500
459.27	268.7500
459.62	272.0500
459.97	271.2000
460.32	279.0500
460.68	276.9000
461.03	271.3000
461.38	275.2500
461.74	295.7000
462.09	283.2500
462.44	273.1000
462.80	268.6500
463.15	264.5000
463.50	261.0500
463.85	273.7000
464.21	264.0500
464.56	272.8500
464.91	253.4000
465.26	260.9500
465.62	255.0000
465.97	268.7500
466.32	264.2500
466.67	261.9000
467.03	260.1500
467.38	260.9000
467.73	262.7500
468.08	263.6500
468.44	264.1500
468.79	259.9500
469.14	245.2500
469.49	254.2500
469.85	257.6000
470.20	274.0500
470.55	270.6000
470.90	269.7000
471.25	257.8500
471.61	259.8000
471.96	260.2000
472.31	260.3500
472.66	260.1500
473.01	261.6000
473.36	265.1500
473.72	259.3000
474.07	261.4500
474.42	258.8500
474.77	258.0500
475.12	261.3500
475.47	263.0500
475.83	261.9000
476.18	259.8000
476.53	255.1000
476.88	262.8500
477.23	261.9000
477.58	257.5500
477.93	261.6000
478.28	256.6500
478.64	261.3500
478.99	266.0000
479.34	270.5500
479.69	275.2000
480.04	282.2000
480.39	287.2500
480.74	287.1500
481.09	306.1500
481.44	317.2500
481.79	326.0500
482.15	340.4500
482.50	363.2000
482.85	381.4000
483.20	412.1000
483.55	430.8000
483.90	459.7500
484.25	478.2500
484.60	504.4500
484.95	538.2500
485.30	559.7000
485.65	579.1500
486.00	591.8000
486.35	580.9500
486.70	575.5000
487.05	583.3500
487.40	567.7500
487.75	554.2500
488.10	532.3000
488.45	509.1500
488.80	494.8000
489.15	485.9500
489.50	473.1000
489.85	468.9500
490.20	460.1500
490.55	461.0500
490.90	456.2000
491.25	444.3000
491.60	430.7000
491.95	418.9000
492.30	411.1000
492.65	402.5000
493.00	390.5000
493.35	382.4500
493.70	375.3500
494.05	367.6500
494.40	366.6500
494.75	355.5000
495.10	345.7500
495.45	339.3500
495.80	333.8000
496.15	330.6000
496.50	321.5000
496.84	315.5000
497.19	308.3000
497.54	305.8000
497.89	299.1500
498.24	291.2000
498.59	288.7500
498.94	282.9000
499.29	277.0500
499.64	272.6500
499.99	270.0500
500.33	267.5500
500.68	262.0000
501.03	261.2000
501.38	262.6000
501.73	261.6500
502.08	258.7500
502.43	257.8500
502.77	259.3500
503.12	259.0000
503.47	257.4000
503.82	259.1000
504.17	259.7000
504.52	260.6500
504.86	260.6500
505.21	266.2000
505.56	265.1500
505.91	268.1000
506.26	268.2000
506.61	273.0000
506.95	271.9000
507.30	277.0500
507.65	281.2000
508.00	283.7000
508.35	283.4500
508.69	287.1000
509.04	289.8000
509.39	290.4500
509.74	292.4500
510.08	294.0500
510.43	298.9500
510.78	300.1000
511.13	300.2000
511.47	302.8000
511.82	304.4000
512.17	303.0500
512.52	305.2000
512.86	306.2500
513.21	306.8500
513.56	303.7500
513.91	306.3000
514.25	303.1000
514.60	301.1500
514.95	301.4000
515.30	299.2500
515.64	298.1500
515.99	298.7000
516.34	296.3000
516.68	295.4000
517.03	291.3000
517.38	288.0000
517.72	290.9500
518.07	285.3000
518.42	282.8500
518.76	281.7000
519.11	278.3000
519.46	277.8500
519.80	273.2500
520.15	269.7000
520.50	268.4000
520.84	265.9000
521.19	264.8000
521.54	259.9500
521.88	254.1000
522.23	253.4500
522.58	251.6000
522.92	247.4500
523.27	246.9500
523.61	244.4000
523.96	242.3000
524.31	241.9500
524.65	237.5500
525.00	236.5000
525.34	232.4500
525.69	227.6500
526.04	229.9500
526.38	226.6500
526.73	222.6500
527.07	223.8000
527.42	222.7000
527.76	219.8000
528.11	217.2500
528.46	214.2500
528.80	214.3000
529.15	210.8000
529.49	208.9000
529.84	208.0000
530.18	207.4500
530.53	205.5000
530.87	205.4000
531.22	207.7000
531.56	210.7500
531.91	218.3000
532.25	224.3500
532.60	224.5500
532.94	226.6500
533.29	224.5500
533.63	222.3500
533.98	220.4000
534.32	222.3500
534.67	227.2000
535.01	235.7500
535.36	244.9000
535.70	266.6500
536.05	290.5000
536.39	317.4000
536.74	342.2000
537.08	369.5500
537.43	396.1500
537.77	428.0500
538.12	475.3000
538.46	534.8000
538.80	625.5000
539.15	734.0500
539.49	900.8500
539.84	1134.4000
540.18	1392.1500
540.53	1623.2000
540.87	1771.3000
541.21	1846.1000
541.56	1818.9500
541.90	1753.5000
542.25	1643.6500
542.59	1556.8500
542.93	1516.4000
543.28	1485.2500
543.62	1488.3500
543.97	1538.0000
544.31	2023.2000
544.65	2577.6001
545.00	2997.3999
545.34	3224.3000
545.68	2944.2000
546.03	2637.6001
546.37	2275.5500
546.71	1797.3500
547.06	1415.1000
547.40	1197.6500
547.74	1070.5000
548.09	968.9000
548.43	888.5000
548.77	815.8500
549.12	746.5500
549.46	684.4500
549.80	629.0500
550.15	575.6500
550.49	526.6500
550.83	482.7000
551.17	448.2500
551.52	412.5500
551.86	377.8000
552.20	352.6500
552.55	331.2000
552.89	306.2000
553.23	286.3500
553.57	265.4500
553.92	244.3500
554.26	229.2000
554.60	215.1000
554.94	199.9000
555.29	190.7500
555.63	181.7500
555.97	174.1500
556.31	167.0500
556.66	161.4500
557.00	155.3000
557.34	150.2000
557.68	147.2500
558.02	143.2000
558.37	140.1000
558.71	136.5000
559.05	135.0000
559.39	133.4000
559.73	129.2000
560.08	127.2000
560.42	125.8000
560.76	124.3000
561.10	122.1000
561.44	121.3000
561.78	120.5000
562.13	119.3500
562.47	116.7500
562.81	116.0000
563.15	115.1500
563.49	112.1000
563.83	110.8500
564.17	111.1500
564.52	110.7500
564.86	108.1000
565.20	107.4500
565.54	107.3500
565.88	105.8000
566.22	105.0500
566.56	104.9000
566.90	105.5000
567.24	105.4500
567.59	103.7500
567.93	104.4000
568.27	104.5500
568.61	103.3500
568.95	102.2500
569.29	102.3500
569.63	99.5000
569.97	98.2000
570.31	98.0500
570.65	96.5500
570.99	96.6500
571.33	97.6000
571.67	96.4000
572.01	97.5000
572.35	95.8000
572.69	97.9500
573.03	97.0500
573.37	97.9500
573.71	98.9500
574.05	100.4500
574.39	105.1500
574.73	109.5000
575.07	143.5000
575.41	251.4500
575.75	337.2500
576.09	410.5500
576.43	417.4000
576.77	376.7500
577.11	355.5000
577.45	398.8500
577.79	415.2500
578.13	438.1000
578.47	450.3500
578.81	415.2500
579.15	405.7500
579.49	378.3000
579.83	321.5000
580.17	279.3500
580.51	261.6500
580.85	262.5500
581.19	268.4500
581.53	284.7500
581.87	305.9000
582.20	326.1500
582.54	342.2000
582.88	353.1500
583.22	357.3500
583.56	353.7000
583.90	352.5000
584.24	342.4500
584.58	330.7000
584.92	324.2500
585.25	321.6500
585.59	337.7500
585.93	370.0000
586.27	396.0000
586.61	404.1000
586.95	397.4000
587.29	373.2000
587.62	339.9000
587.96	306.0000
588.30	273.0000
588.64	247.4000
588.98	231.5000
589.31	225.6500
589.65	223.0500
589.99	221.8500
590.33	225.8000
590.67	234.0000
591.01	248.9500
591.34	266.2000
591.68	292.1500
592.02	310.4000
592.36	322.5500
592.69	318.5500
593.03	303.3000
593.37	279.8500
593.71	255.3000
594.04	227.2500
594.38	205.8000
594.72	190.9000
595.06	177.4000
595.39	173.3000
595.73	168.0500
596.07	168.5500
596.41	167.7500
596.74	171.7000
597.08	173.8000
597.42	182.8000
597.76	194.6000
598.09	207.2000
598.43	218.5000
598.77	225.8000
599.10	227.4000
599.44	217.0500
599.78	209.7000
600.11	195.2000
600.45	181.5000
600.79	166.8000
601.12	155.8500
601.46	146.4000
601.80	140.0000
602.13	133.8500
602.47	132.8000
602.81	130.9000
603.14	131.8500
603.48	134.8500
603.82	136.2000
604.15	137.2000
604.49	140.0500
604.82	140.8000
605.16	144.4500
605.50	149.6000
605.83	155.9000
606.17	164.0500
606.50	173.0000
606.84	184.9000
607.18	198.9000
607.51	218.5500
607.85	248.2500
608.18	286.3000
608.52	341.0500
608.86	425.8500
609.19	576.1000
609.53	841.5500
609.86	1241.9000
610.20	1609.3000
610.53	1872.3000
610.87	1942.4000
611.20	1900.8000
611.54	1735.1500
611.87	1546.5500
612.21	1311.9500
612.54	1081.0500
612.88	923.5000
613.21	828.5500
613.55	763.7500
613.88	701.9000
614.22	649.4500
614.55	592.4000
614.89	529.6500
615.22	471.9500
615.56	417.7000
615.89	370.2500
616.23	330.5000
616.56	295.4500
616.90	269.9000
617.23	250.6000
617.57	240.1000
617.90	229.3500
618.24	223.7000
618.57	221.4000
618.90	220.4000
619.24	223.5000
619.57	229.4000
619.91	234.9000
620.24	233.8000
620.58	236.7000
620.91	238.1000
621.24	237.9000
621.58	240.5000
621.91	239.3000
622.25	243.2000
622.58	245.4500
622.91	251.9500
623.25	248.5500
623.58	254.2500
623.91	253.8000
624.25	257.5500
624.58	256.8000
624.92	259.2000
625.25	256.8000
625.58	254.3500
625.92	254.3500
626.25	247.6500
626.58	244.6500
626.92	235.6000
627.25	231.2000
627.58	224.6500
627.91	219.3000
628.25	218.3500
628.58	218.0000
628.91	223.7500
629.25	242.0000
629.58	264.8000
629.91	289.3500
630.25	305.6500
630.58	301.7000
630.91	285.7000
631.24	260.5000
631.58	230.7500
631.91	201.1000
632.24	169.4000
632.57	146.8000
632.91	130.1000
633.24	118.7000
633.57	110.9000
633.90	106.3000
634.24	104.3000
634.57	101.5500
634.90	98.9000
635.23	97.6500
635.56	96.3500
635.90	94.9000
636.23	92.7500
636.56	93.0000
636.89	90.3500
637.22	89.7000
637.56	89.1000
637.89	89.3000
638.22	87.4500
638.55	87.7500
638.88	86.2000
639.21	86.3500
639.55	87.9000
639.88	86.4500
640.21	84.6500
640.54	85.3500
640.87	86.6500
641.20	86.7000
641.53	86.1000
641.87	85.9000
642.20	85.3000
642.53	86.0000
642.86	86.5500
643.19	87.8000
643.52	86.2500
643.85	88.1500
644.18	86.4500
644.51	86.0500
644.84	86.7500
645.18	86.2000
645.51	85.7000
645.84	85.4500
646.17	85.9000
646.50	85.7500
646.83	85.7500
647.16	86.2000
647.49	86.9000
647.82	87.9500
648.15	87.5000
648.48	91.6000
648.81	98.5500
649.14	106.6500
649.47	115.5000
649.80	122.5000
650.13	125.2000
650.46	121.9000
650.79	118.0500
651.12	115.5000
651.45	112.2500
651.78	107.9000
652.11	103.1000
652.44	100.9500
652.77	99.3500
653.10	98.1000
653.43	96.5000
653.76	94.0000
654.09	92.2000
654.42	89.8500
654.75	89.4000
655.08	87.1000
655.41	86.8000
655.74	86.9000
656.07	86.7000
656.39	86.6500
656.72	88.0500
657.05	87.0500
657.38	87.0000
657.71	86.0500
658.04	85.7000
658.37	84.9500
658.70	81.8500
659.03	80.9000
659.36	79.7000
659.68	78.0000
660.01	76.4000
660.34	80.6000
660.67	82.3500
661.00	85.6500
661.33	90.8500
661.66	94.5500
661.98	97.2000
662.31	98.4500
662.64	95.4000
662.97	95.0500
663.30	91.6500
663.63	88.5000
663.95	83.5500
664.28	82.4000
664.61	80.4000
664.94	78.2500
665.27	76.3000
665.59	76.5500
665.92	77.5000
666.25	76.7500
666.58	76.4000
666.91	76.7000
667.23	77.2500
667.56	77.0000
667.89	75.9500
668.22	75.9500
668.54	75.7000
668.87	76.1000
669.20	74.8000
669.53	74.5500
669.85	74.4000
670.18	75.6000
670.51	74.7000
670.83	74.1500
671.16	74.9500
671.49	75.3000
671.82	73.3500
672.14	73.8500
672.47	73.5500
672.80	72.8000
673.12	71.2500
673.45	72.2500
673.78	71.6500
674.10	72.8000
674.43	71.9000
674.76	71.2500
675.08	70.5500
675.41	69.5500
675.74	72.1000
676.06	71.2000
676.39	71.3000
676.72	69.2000
677.04	70.5500
677.37	71.4500
677.69	70.3000
678.02	70.8500
678.35	71.5500
678.67	71.2000
679.00	71.9500
679.32	73.0500
679.65	74.3000
679.98	73.9000
680.30	72.8500
680.63	73.7500
680.95	73.8000
681.28	73.4500
681.60	73.1500
681.93	72.2500
682.26	71.2500
682.58	70.5000
682.91	70.0500
683.23	69.9500
683.56	70.2500
683.88	70.5000
684.21	71.5000
684.53	70.5500
684.86	71.4500
685.18	72.4500
685.51	73.7000
685.83	75.3500
686.16	79.0000
686.48	81.6000
686.81	85.4000
687.13	87.8000
687.46	87.0500
687.78	85.4000
688.11	84.0000
688.43	81.5500
688.76	77.7500
689.08	75.4500
689.41	73.5000
689.73	72.1000
690.05	70.5500
690.38	70.6000
690.70	67.1000
691.03	66.4500
691.35	66.2500
691.68	65.7000
692.00	65.6000
692.32	68.8000
692.65	71.8000
692.97	74.7500
693.29	75.9000
693.62	75.6000
693.94	73.2000
694.27	71.8000
694.59	69.7000
694.91	68.0500
695.24	67.6500
695.56	65.5000
695.88	64.0000
696.21	63.4000
696.53	61.0000
696.85	61.1000
697.18	61.8000
697.50	61.9500
697.82	60.6500
698.15	61.2500
698.47	61.6500
698.79	61.7500
699.12	61.6000
699.44	61.5500
699.76	61.6000
700.09	60.5000
700.41	61.2000
700.73	62.1000
701.05	62.8500
701.38	61.4000
701.70	62.2000
702.02	62.9000
702.34	63.6500
702.67	64.1000
702.99	64.3500
703.31	66.3000
703.63	67.3000
703.96	67.0000
704.28	68.7500
704.60	71.8000
704.92	75.6500
705.25	80.6500
705.57	86.6000
705.89	94.4000
706.21	100.4000
706.53	104.4500
706.86	105.6000
707.18	106.8500
707.50	107.0000
707.82	111.5000
708.14	116.5500
708.46	118.8500
708.79	115.8000
709.11	109.5000
709.43	103.3500
709.75	97.4500
710.07	93.6500
710.39	90.5000
710.71	89.3500
711.04	90.8500
711.36	95.8500
711.68	99.6500
712.00	101.5500
712.32	99.1000
712.64	95.5000
712.96	91.9000
713.28	86.3000
713.60	82.1000
713.92	75.6000
714.24	70.9500
714.57	67.0500
714.89	64.0000
715.21	62.1000
715.53	62.4000
715.85	61.6000
716.17	60.5500
716.49	60.6000
716.81	59.7000
717.13	59.0500
717.45	60.0500
717.77	59.8000
718.09	60.3000
718.41	59.9500
718.73	58.5500
719.05	59.3000
719.37	58.7000
719.69	58.9000
720.01	59.1500
720.33	60.0500
720.65	59.8500
720.97	58.6500
721.29	59.5500
721.61	59.1500
721.93	59.2000
722.25	59.9000
722.57	58.5000
722.89	59.0000
723.21	59.2000
723.52	58.7500
723.84	59.7500
724.16	58.7500
724.48	58.6000
724.80	59.3000
725.12	58.8000
725.44	58.4000
725.76	58.6500
726.08	58.1000
726.40	59.5000
726.72	59.0000
727.03	59.3000
727.35	59.7000
727.67	58.1500
727.99	57.7000
728.31	58.8500
728.63	59.0000
728.95	58.6500
729.26	58.3000
729.58	59.6500
729.90	57.8000
730.22	58.5000
730.54	58.0500
730.86	58.8000
731.17	58.5000
731.49	58.5500
731.81	58.6500
732.13	58.9000
732.45	58.1000
732.76	59.3500
733.08	59.2000
733.40	57.8500
733.72	58.0000
734.03	58.2000
734.35	56.8500
734.67	57.5000
734.99	58.2000
735.30	57.8500
735.62	56.8500
735.94	58.8000
736.26	58.3500
736.57	57.3000
736.89	57.1500
737.21	58.5000
737.53	58.9500
737.84	58.7500
738.16	58.6000
738.48	57.8500
738.79	58.1000
739.11	58.7500
739.43	59.0500
739.74	59.0500
740.06	58.4000
740.38	59.3500
740.69	58.2500
741.01	60.2000
741.33	58.1000
741.64	60.0000
741.96	58.6500
742.28	59.1500
742.59	59.7000
742.91	60.0000
743.23	58.9000
743.54	57.4000
743.86	58.5500
744.17	58.4500
744.49	57.7000
744.81	57.6000
745.12	58.1000
745.44	58.1000
745.75	58.7500
746.07	58.1000
746.38	57.6500
746.70	59.1500
747.02	57.3000
747.33	57.6500
747.65	57.9000
747.96	58.3500
748.28	58.7000
748.59	57.9500
748.91	57.3500
749.22	57.9000
749.54	58.4000
749.85	58.1000
750.17	58.5000
750.48	58.5500
750.80	57.7000
751.11	57.9000
751.43	57.6500
751.74	57.3500
752.06	57.9000
752.37	58.5500
752.69	57.3000
753.00	57.9000
753.32	58.1000
753.63	57.2000
753.95	57.1000
754.26	57.6000
754.58	57.0000
754.89	58.3000
755.20	56.8500
755.52	57.0000
755.83	57.2500
756.15	56.5000
756.46	57.5500
756.78	57.7000
757.09	56.9500
757.40	56.6500
757.72	56.1500
758.03	58.1500
758.34	56.7500
758.66	58.3500
758.97	57.2500
759.29	57.4000
759.60	57.9500
759.91	56.6000
760.23	57.4500
760.54	56.7500
760.85	57.3500
761.17	57.3500
761.48	57.0500
761.79	56.9000
762.11	57.3500
762.42	58.7500
762.73	58.3500
763.05	57.2500
763.36	58.4000
763.67	58.6000
763.98	59.2500
764.30	57.5500
764.61	57.9000
764.92	57.6000
765.23	58.5000
765.55	57.7000
765.86	56.5500
766.17	57.3000
766.48	57.1000
766.80	57.8000
767.11	57.5500
767.42	57.0500
767.73	56.4000
768.05	56.9500
768.36	56.7000
768.67	58.5000
768.98	57.6000
769.29	56.6000
769.61	58.1500
769.92	57.6500
770.23	57.6000
770.54	57.6500
770.85	58.2500
771.17	57.9000
771.48	57.5000
771.79	57.3500
772.10	56.8500
772.41	58.6500
772.72	57.6500
773.03	57.0500
773.35	57.9000
773.66	57.1500
773.97	57.4000
774.28	58.3500
774.59	57.9500
774.90	56.9000
775.21	56.6000
775.52	56.6500
775.83	57.3500
776.15	57.0500
776.46	57.4000
776.77	57.5500
777.08	57.3500
777.39	56.5500
777.70	57.1500
778.01	57.4000
778.32	57.3000
778.63	57.5000
778.94	56.4000
779.25	57.0500
779.56	57.1500
779.87	57.4000
780.18	57.4500
780.49	57.3000
780.80	56.9500
781.11	56.4500
781.42	56.8500
781.73	57.3000
782.04	57.5500
782.35	58.0500
782.66	57.1000
782.97	58.5500
783.28	56.6000
783.59	57.5500
783.90	56.2000
784.21	56.0500
784.52	57.2500
784.83	58.9000
785.14	57.9500
785.45	58.3000
785.76	56.9500
786.06	57.0000
786.37	56.3500
786.68	57.6000
786.99	56.9000
787.30	58.3000
787.61	56.9000
787.92	56.6500
788.23	57.5000
788.54	57.1000
788.84	57.4000
789.15	56.5000
789.46	56.9500
789.77	55.8500
790.08	56.3500
790.39	58.0500
790.70	56.4000
791.00	57.6000
791.31	57.1000
791.62	57.4500
791.93	57.1000
792.24	57.3500
792.54	56.9500
792.85	56.3500
793.16	57.5000
793.47	56.3500
793.78	56.8500
794.08	57.1500
794.39	57.4500
794.70	58.0500
795.01	57.7000
795.31	57.2000
795.62	56.0500
795.93	57.7500
796.24	57.3500
796.54	56.1500
796.85	58.1500
797.16	57.3500
797.47	57.0500
797.77	56.5500
798.08	57.6000
798.39	56.8000
798.69	57.7000
799.00	56.6000
799.31	56.8500
799.62	56.3000
799.92	56.2000
800.23	56.6500
800.54	57.0500
800.84	57.8500
801.15	57.9000
801.46	55.5500
801.76	57.1500
802.07	57.3500
802.37	57.8500
802.68	57.6000
802.99	57.2000
803.29	56.4000
803.60	56.4500
803.91	56.2500
804.21	57.1500
804.52	57.0500
804.82	57.6500
805.13	57.1500
805.44	58.4000
805.74	57.0000
806.05	56.8500
806.35	57.5500
806.66	57.2000
806.96	57.3500
807.27	56.6000
807.57	56.5000
807.88	57.1500
808.19	56.3500
808.49	57.6500
808.80	57.2500
809.10	57.3500
809.41	56.7000
809.71	57.3000
810.02	57.3500
810.32	56.6500
810.63	58.2500
810.93	58.5000
811.24	57.4500
811.54	57.6500
811.85	57.7500
812.15	56.2000
812.45	56.5500
812.76	56.5500
813.06	56.8000
813.37	57.4500
813.67	58.0000
813.98	57.3000
814.28	56.6000
814.58	56.8000
814.89	57.0500
815.19	56.9000
815.50	58.0000
815.80	57.5500
816.11	57.4000
816.41	57.4000
816.71	56.6000
817.02	56.8000
817.32	56.7000
817.62	55.7500
817.93	57.6000
818.23	57.0000
818.53	57.6000
818.84	57.0500
819.14	56.6500
819.44	56.4500
819.75	57.7000
820.05	57.0000
820.35	56.8000
820.66	55.9000
820.96	56.3000
821.26	57.7000
821.57	56.7500
821.87	57.0500
822.17	58.0500
822.48	57.1000
822.78	56.7500
823.08	57.6000
823.38	57.5000
823.69	56.2000
823.99	57.7500
824.29	57.6000
824.59	56.8500
824.90	56.8500
825.20	56.6000
825.50	57.2500
825.80	57.3500
826.10	56.9500
826.41	57.2000
826.71	56.7000
827.01	56.7000
827.31	56.6500
827.61	57.8000
827.92	57.2000
828.22	57.4000
828.52	56.7500
828.82	56.6000
829.12	57.8000
829.42	58.1500
829.73	57.8500
830.03	56.7000
830.33	56.8000
830.63	56.9500
830.93	57.5000
831.23	57.0500
831.53	57.4500
831.83	57.2000
832.14	56.2000
832.44	56.8000
832.74	57.6500
833.04	57.2500
833.34	57.2500
833.64	57.3500
833.94	56.3000
834.24	56.1500
834.54	57.6000
834.84	56.8000
835.14	57.1000
835.44	57.1000
835.74	56.6500
836.04	57.1000
836.34	56.9500
836.64	57.3000
836.95	56.7000
837.25	56.4000
837.55	57.5000
837.85	58.1000
838.15	57.4000
838.45	57.0500
838.74	57.9500
839.04	56.1000
839.34	57.1000
839.64	57.0500
839.94	57.1000
840.24	56.3500
840.54	56.4000
840.84	57.7500
841.14	56.5500
841.44	56.9500
841.74	57.5000
842.04	57.1000
842.34	57.9500
842.64	57.2500
842.94	56.4000
843.24	56.1000
843.53	56.9000
843.83	57.1000
844.13	57.8500
844.43	57.4500
844.73	56.5500
845.03	56.3500
845.33	56.7000
845.63	56.6000
845.92	56.4000
846.22	56.6500
846.52	56.6000
846.82	56.3500
847.12	56.5000
847.42	56.9000
847.71	56.3000
848.01	57.3000
848.31	56.1000
848.61	56.4000
848.91	56.9000
849.20	57.4500
849.50	57.2000
849.80	56.5000
850.10	57.3500
850.39	57.1000
850.69	56.1500
850.99	56.2500
851.29	57.1500
851.59	57.6000
851.88	57.7000
852.18	56.3000
852.48	56.1000
852.77	56.7500
853.07	56.9000
853.37	56.4500
853.67	56.7500
853.96	57.1500
854.26	56.9500
854.56	56.9500
854.85	56.6000
855.15	56.5000
855.45	56.2500
855.74	56.6000
856.04	57.4500
856.34	56.5000
856.63	57.0000
856.93	56.6500
857.23	57.7500
857.52	56.5500
857.82	57.7000
858.11	56.4500
858.41	57.0000
858.71	57.5000
859.00	56.0500
859.30	57.4000
859.59	56.4000
859.89	56.2500
860.19	56.9500
860.48	56.6500
860.78	56.6000
861.07	56.8500
861.37	57.0000
861.66	56.4000
861.96	56.7000
862.26	56.1500
862.55	56.1500
862.85	57.7500
863.14	56.9000
863.44	55.8000
863.73	56.2500
864.03	56.7000
864.32	56.2500
864.62	56.8000
864.91	56.5500
865.21	56.1500
865.50	56.5000
865.80	56.3000
866.09	56.0000
866.39	56.5500
866.68	56.3500
866.97	56.4500
867.27	57.0500
867.56	57.0500
867.86	56.8500
868.15	57.6500
868.45	57.5500
868.74	56.7500
869.03	56.7000
869.33	57.0000
869.62	56.1000
869.92	56.2000
870.21	56.5000
870.50	57.4000
870.80	56.3500
871.09	56.0500
871.39	54.8500
871.68	57.2500
871.97	56.4000
872.27	56.1000
872.56	57.0500
872.85	57.1500
873.15	56.3000
873.44	56.4500
873.73	57.4500
874.03	57.5500
874.32	56.5000
874.61	56.9500
874.90	56.7500
875.20	57.4500
875.49	55.9000
875.78	56.1000
>>>>>End Spectral Data<<<<<
