OOIBase32 Version 1.0.0.8 Data File
++++++++++++++++++++++++++++++++++++
Date: Monday, January 21, 1980, 09:00:12
User: Valued Ocean Optics Customer
Spectrometer Serial Number: Unknown
Spectrometer Channel: Master
Integration Time (msec): 3
Spectra Averaged: 20
Boxcar Smoothing: 0
Correct for Electrical Dark: Disabled
Time Normalized: Disabled
Dual-beam Reference: Disabled
Reference Channel: Master
>>>>>Begin Spectral Data<<<<<
179.00	0.0000
179.38	0.0000
179.75	54.3000
180.13	55.0500
180.51	56.2500
180.88	55.2500
181.26	56.6500
181.64	57.0500
182.02	57.2000
182.39	56.2500
182.77	56.2500
183.15	55.7000
183.52	56.1000
183.90	55.0000
184.28	56.0000
184.65	55.8500
185.03	56.2000
185.41	55.8500
185.78	55.8000
186.16	56.0000
186.53	54.9500
186.91	55.1000
187.29	55.7000
187.66	55.2000
188.04	56.1500
188.42	56.9500
188.79	58.6500
189.17	57.2000
189.55	57.6000
189.92	57.7500
190.30	57.6500
190.67	58.4000
191.05	58.5500
191.43	58.7000
191.80	56.7500
192.18	57.4500
192.56	58.1500
192.93	57.6000
193.31	58.4000
193.68	58.8000
194.06	58.5500
194.44	58.4000
194.81	57.6500
195.19	58.0000
195.56	58.0500
195.94	58.1500
196.32	57.2000
196.69	56.7000
197.07	57.4500
197.44	57.5500
197.82	58.6000
198.19	58.8000
198.57	59.6500
198.95	58.5000
199.32	58.5000
199.70	58.7000
200.07	58.1500
200.45	58.3500
200.82	58.9500
201.20	58.6500
201.57	58.2000
201.95	58.2500
202.33	59.1000
202.70	59.0000
203.08	59.4000
203.45	58.3500
203.83	58.0500
204.20	57.7500
204.58	58.7000
204.95	58.6000
205.33	59.5000
205.70	58.8000
206.08	59.0000
206.45	60.0000
206.83	59.1500
207.20	58.3000
207.58	58.2500
207.95	59.2500
208.33	58.3500
208.70	58.4500
209.08	58.5000
209.45	60.9500
209.83	58.9500
210.20	59.5500
210.58	58.7000
210.95	59.4500
211.33	60.4500
211.70	58.9500
212.08	60.0500
212.45	59.5500
212.83	59.7000
213.20	60.9500
213.58	60.9500
213.95	61.5500
214.33	62.1500
214.70	61.5000
215.07	62.4000
215.45	61.6000
215.82	61.9000
216.20	62.5500
216.57	62.9000
216.95	62.7500
217.32	63.4000
217.70	63.0000
218.07	62.0000
218.44	62.6000
218.82	63.8500
219.19	63.9500
219.57	63.6000
219.94	63.4500
220.32	63.0000
220.69	63.3500
221.06	63.0000
221.44	62.0000
221.81	62.9000
222.19	62.1500
222.56	62.7000
222.93	63.0000
223.31	62.6500
223.68	63.2500
224.06	62.4500
224.43	63.6000
224.80	62.5500
225.18	62.5500
225.55	63.3500
225.92	63.0500
226.30	60.3500
226.67	61.1000
227.05	60.8500
227.42	60.7000
227.79	60.9000
228.17	60.5500
228.54	61.6500
228.91	61.7500
229.29	61.4500
229.66	61.6000
230.03	60.5000
230.41	61.4000
230.78	61.4500
231.15	60.9500
231.53	61.2000
231.90	62.1000
232.27	61.6000
232.65	61.0500
233.02	62.7000
233.39	62.2500
233.77	62.2500
234.14	62.9000
234.51	63.1500
234.89	63.6000
235.26	63.1000
235.63	63.0000
236.01	63.2500
236.38	63.6000
236.75	63.3500
237.12	64.4500
237.50	64.6000
237.87	64.5000
238.24	64.2000
238.62	65.4500
238.99	66.7500
239.36	66.4500
239.73	66.5000
240.11	67.5500
240.48	68.0500
240.85	67.3500
241.23	68.7000
241.60	68.3000
241.97	70.1000
242.34	71.5000
242.72	71.3500
243.09	72.3500
243.46	75.3500
243.83	76.7000
244.21	79.7000
244.58	86.6500
244.95	91.9500
245.32	95.9000
245.70	102.8500
246.07	109.7500
246.44	117.7000
246.81	127.2000
247.18	143.2000
247.56	160.3000
247.93	171.3500
248.30	187.1000
248.67	214.5500
249.04	245.7500
249.42	291.7500
249.79	361.8500
250.16	444.5000
250.53	533.9500
250.90	696.2500
251.28	1024.9000
251.65	1767.0000
252.02	3411.3999
252.39	4095.0000
252.76	4095.0000
253.14	4095.0000
253.51	4095.0000
253.88	4095.0000
254.25	4095.0000
254.62	1432.3000
254.99	802.2000
255.37	623.6500
255.74	508.6000
256.11	407.2500
256.48	326.2500
256.85	287.1500
257.22	241.7500
257.59	210.1000
257.97	166.9000
258.34	147.3500
258.71	135.3500
259.08	118.6000
259.45	105.5500
259.82	101.3500
260.19	94.9500
260.56	88.6000
260.94	84.1000
261.31	82.5000
261.68	79.1500
262.05	76.2000
262.42	75.8000
262.79	75.2500
263.16	76.1000
263.53	75.6500
263.90	79.7500
264.28	89.7000
264.65	100.2500
265.02	96.4500
265.39	85.7500
265.76	73.2500
266.13	69.1500
266.50	69.0500
266.87	68.7000
267.24	67.7000
267.61	66.1000
267.98	65.9000
268.35	66.2000
268.72	67.1500
269.09	66.5000
269.46	67.1500
269.84	67.3500
270.21	65.8500
270.58	65.4000
270.95	65.0500
271.32	65.3000
271.69	65.1500
272.06	64.9500
272.43	65.4000
272.80	65.6000
273.17	66.4000
273.54	67.6000
273.91	68.3500
274.28	74.1000
274.65	75.9500
275.02	75.3000
275.39	69.8500
275.76	66.2500
276.13	65.1000
276.50	66.3500
276.87	65.8500
277.24	66.5000
277.61	66.1500
277.98	65.8500
278.35	65.6000
278.72	67.5500
279.09	71.0500
279.46	74.7500
279.83	76.4500
280.20	74.4500
280.57	73.7000
280.94	75.4000
281.31	77.7000
281.67	79.3000
282.04	80.0500
282.41	75.6000
282.78	71.7000
283.15	68.7000
283.52	68.2000
283.89	68.2500
284.26	66.7500
284.63	66.4000
285.00	66.5500
285.37	68.1500
285.74	67.4500
286.11	66.1000
286.48	66.9000
286.85	68.8500
287.21	68.5500
287.58	72.6000
287.95	79.8000
288.32	94.5500
288.69	102.3000
289.06	97.7000
289.43	82.7500
289.80	72.7500
290.17	68.4000
290.54	68.4500
290.90	69.1500
291.27	72.0500
291.64	72.8500
292.01	73.9500
292.38	75.2500
292.75	76.4000
293.12	76.0500
293.48	80.9500
293.85	87.8500
294.22	97.1500
294.59	129.0500
294.96	208.6000
295.33	410.6500
295.70	774.6500
296.06	885.5000
296.43	746.1500
296.80	386.9500
297.17	159.2500
297.54	102.6500
297.91	86.0000
298.27	80.4500
298.64	78.6500
299.01	77.1500
299.38	76.3000
299.75	76.9000
300.11	81.6500
300.48	92.4500
300.85	131.0500
301.22	170.6500
301.59	180.2000
301.95	153.4000
302.32	105.9000
302.69	79.3500
303.06	71.3500
303.43	68.6000
303.79	69.2500
304.16	68.6500
304.53	70.0500
304.90	70.5000
305.26	70.0500
305.63	70.3000
306.00	71.9000
306.37	72.8500
306.73	75.0500
307.10	77.2000
307.47	78.9500
307.84	83.1500
308.20	86.2000
308.57	95.2000
308.94	101.5000
309.31	110.2000
309.67	125.6500
310.04	154.9000
310.41	213.8000
310.77	378.5000
311.14	864.8500
311.51	1729.2000
311.88	2773.8999
312.24	3234.6499
312.61	2800.7500
312.98	1892.2500
313.34	816.2500
313.71	322.0500
314.08	176.8000
314.44	133.0000
314.81	114.5500
315.18	104.2000
315.55	95.9500
315.91	90.9500
316.28	86.5000
316.65	83.2000
317.01	81.4500
317.38	79.3000
317.75	75.7500
318.11	73.8500
318.48	71.0500
318.84	70.3000
319.21	70.2000
319.58	69.3500
319.94	68.6500
320.31	67.7000
320.68	67.6000
321.04	67.2000
321.41	67.8500
321.78	66.9500
322.14	67.1000
322.51	67.3000
322.87	67.2500
323.24	67.4500
323.61	68.2500
323.97	66.2000
324.34	67.1000
324.70	66.0000
325.07	65.3000
325.44	65.5000
325.80	66.9500
326.17	66.9000
326.53	66.2000
326.90	66.6000
327.27	67.1500
327.63	65.8000
328.00	66.8500
328.36	67.0500
328.73	66.5000
329.09	68.0000
329.46	66.1000
329.83	66.9500
330.19	66.7000
330.56	67.5500
330.92	67.1500
331.29	66.8500
331.65	70.2500
332.02	75.2000
332.38	87.9000
332.75	122.4000
333.11	159.8000
333.48	171.7500
333.84	154.3500
334.21	115.7500
334.58	90.8500
334.94	75.5000
335.31	69.5500
335.67	68.3000
336.04	69.0000
336.40	67.5500
336.77	67.7500
337.13	68.3000
337.50	68.1500
337.86	68.3000
338.22	67.4500
338.59	66.8500
338.95	67.3000
339.32	67.5000
339.68	66.8000
340.05	66.8500
340.41	66.6500
340.78	66.7500
341.14	66.8000
341.51	67.3000
341.87	67.0000
342.24	68.6500
342.60	67.3000
342.96	66.0500
343.33	67.8000
343.69	66.1000
344.06	67.0500
344.42	66.6500
344.79	66.6000
345.15	68.3500
345.51	66.8000
345.88	68.7000
346.24	68.0000
346.61	67.5000
346.97	67.4500
347.34	67.3500
347.70	67.8500
348.06	67.5500
348.43	68.1500
348.79	67.8500
349.16	68.3000
349.52	67.1500
349.88	68.2000
350.25	68.2500
350.61	68.8000
350.97	68.5500
351.34	69.3000
351.70	69.7500
352.07	69.5500
352.43	70.5500
352.79	70.4500
353.16	69.8000
353.52	69.9500
353.88	71.2500
354.25	72.7000
354.61	72.2500
354.97	73.2000
355.34	74.1000
355.70	74.7500
356.06	76.1500
356.43	80.6500
356.79	82.6000
357.15	84.8000
357.52	87.0000
357.88	88.8000
358.24	90.7500
358.60	94.1500
358.97	98.2500
359.33	103.6000
359.69	105.9000
360.06	112.1000
360.42	119.7000
360.78	126.5000
361.14	135.5000
361.51	147.4000
361.87	166.9500
362.23	213.1000
362.60	324.6500
362.96	780.3500
363.32	2399.7000
363.68	4095.0000
364.05	4095.0000
364.41	4095.0000
364.77	4095.0000
365.13	4095.0000
365.50	4095.0000
365.86	1733.2000
366.22	821.7500
366.58	458.3000
366.95	277.2000
367.31	195.4000
367.67	166.1500
368.03	148.8500
368.39	141.1000
368.76	132.7500
369.12	127.2000
369.48	123.6000
369.84	118.3500
370.20	118.8500
370.57	114.4000
370.93	112.9000
371.29	110.7000
371.65	110.1000
372.01	111.0000
372.38	108.6500
372.74	107.5500
373.10	107.2000
373.46	108.5000
373.82	109.4000
374.18	107.0000
374.55	109.1500
374.91	110.4500
375.27	110.9500
375.63	109.5500
375.99	109.9500
376.35	111.3000
376.71	111.5000
377.08	114.5000
377.44	115.7500
377.80	117.9000
378.16	115.5500
378.52	115.5000
378.88	115.5500
379.24	118.1500
379.60	119.6000
379.97	122.2000
380.33	121.9500
380.69	119.9500
381.05	124.0500
381.41	125.5000
381.77	125.1000
382.13	127.9500
382.49	127.5000
382.85	125.7500
383.21	128.6500
383.57	125.5500
383.94	130.2000
384.30	130.4000
384.66	131.0000
385.02	128.9500
385.38	129.7500
385.74	131.6500
386.10	134.3500
386.46	135.1000
386.82	134.8500
387.18	132.2500
387.54	133.8500
387.90	133.4000
388.26	136.9000
388.62	140.1000
388.98	140.2000
389.34	142.2000
389.70	144.0500
390.06	136.1500
390.42	136.2500
390.78	141.6000
391.14	143.1500
391.50	136.9500
391.86	141.3000
392.22	141.3500
392.58	140.2500
392.94	132.0000
393.30	138.0000
393.66	138.2000
394.02	141.4000
394.38	134.8500
394.74	140.4000
395.10	138.7500
395.46	143.6500
395.82	140.8500
396.18	141.1000
396.54	147.9500
396.90	153.6000
397.26	152.2000
397.62	152.7000
397.98	159.4000
398.34	151.1000
398.70	153.2500
399.05	149.0000
399.41	152.1000
399.77	159.2500
400.13	166.5000
400.49	168.9500
400.85	178.6000
401.21	172.0000
401.57	195.5000
401.93	221.4000
402.29	308.8000
402.65	875.4500
403.00	3112.8501
403.36	4095.0000
403.72	4095.0000
404.08	4095.0000
404.44	4095.0000
404.80	3547.7500
405.16	1055.9000
405.52	452.2000
405.87	348.7000
406.23	470.9000
406.59	531.3000
406.95	579.8000
407.31	503.4000
407.67	368.4500
408.03	257.9500
408.38	199.9500
408.74	174.7500
409.10	161.5000
409.46	148.7000
409.82	149.5500
410.17	146.7000
410.53	138.1500
410.89	140.9000
411.25	128.7500
411.61	130.8500
411.97	135.9500
412.32	131.6000
412.68	134.0500
413.04	129.3500
413.40	119.6500
413.75	125.0500
414.11	127.2000
414.47	125.5000
414.83	129.3500
415.19	124.7000
415.54	118.9500
415.90	124.0500
416.26	120.5500
416.62	121.8000
416.97	115.9500
417.33	120.1000
417.69	119.2000
418.05	118.3000
418.40	114.3500
418.76	116.7500
419.12	121.3500
419.48	117.7000
419.83	119.3000
420.19	110.3500
420.55	110.1000
420.90	116.1500
421.26	111.0000
421.62	109.4000
421.98	113.4500
422.33	113.0000
422.69	113.3500
423.05	113.7000
423.40	107.4000
423.76	104.1000
424.12	112.0500
424.47	111.9000
424.83	111.2000
425.19	108.8000
425.54	108.3000
425.90	113.2500
426.26	116.9500
426.61	116.5000
426.97	108.2500
427.33	117.3000
427.68	121.4500
428.04	129.7500
428.40	140.5500
428.75	147.3500
429.11	140.7500
429.47	149.0000
429.82	150.7000
430.18	155.0500
430.53	154.2500
430.89	160.4500
431.25	172.6000
431.60	183.7000
431.96	195.0500
432.31	220.8500
432.67	274.2000
433.03	362.7000
433.38	537.9500
433.74	1591.4000
434.09	4095.0000
434.45	4095.0000
434.81	4095.0000
435.16	4095.0000
435.52	4095.0000
435.87	4095.0000
436.23	4095.0000
436.58	2330.8501
436.94	639.9500
437.30	337.3000
437.65	264.7500
438.01	211.4000
438.36	187.4500
438.72	171.0500
439.07	154.8500
439.43	147.1500
439.78	144.5000
440.14	138.1000
440.49	124.5500
440.85	119.8000
441.20	118.2500
441.56	112.6000
441.91	111.8000
442.27	104.1000
442.62	102.4500
442.98	99.9500
443.33	96.0500
443.69	94.0500
444.04	95.0500
444.40	89.6500
444.75	92.6500
445.11	90.2000
445.46	89.5000
445.82	87.9000
446.17	85.2000
446.53	87.2500
446.88	88.8000
447.23	83.0500
447.59	82.4000
447.94	81.9500
448.30	83.6500
448.65	81.7000
449.01	82.0500
449.36	81.5000
449.72	83.2500
450.07	83.1000
450.42	83.3000
450.78	81.4000
451.13	82.5000
451.49	80.4500
451.84	78.0000
452.19	78.8000
452.55	79.8500
452.90	79.7000
453.26	80.4500
453.61	80.6500
453.96	77.6500
454.32	79.0500
454.67	78.9000
455.02	75.7000
455.38	77.3000
455.73	76.4500
456.09	78.1500
456.44	78.7500
456.79	78.2000
457.15	77.3500
457.50	75.5500
457.85	75.9000
458.21	75.9500
458.56	76.8500
458.91	76.0500
459.27	74.2000
459.62	75.8000
459.97	75.2000
460.32	75.8000
460.68	75.7500
461.03	76.4500
461.38	75.4500
461.74	75.7000
462.09	75.7000
462.44	74.3000
462.80	73.9000
463.15	73.4000
463.50	73.3500
463.85	73.7000
464.21	73.5500
464.56	74.2000
464.91	72.8000
465.26	72.4500
465.62	72.4500
465.97	73.3500
466.32	73.2500
466.67	72.7000
467.03	72.9500
467.38	72.9000
467.73	73.3500
468.08	72.4500
468.44	72.3500
468.79	73.6000
469.14	71.8000
469.49	72.9000
469.85	72.2000
470.20	73.2000
470.55	74.0500
470.90	73.5000
471.25	72.5000
471.61	71.8000
471.96	72.8500
472.31	72.1000
472.66	72.6000
473.01	71.8000
473.36	74.2500
473.72	72.6500
474.07	72.6000
474.42	73.3000
474.77	71.9000
475.12	73.8000
475.47	72.0500
475.83	73.0500
476.18	72.8500
476.53	72.3000
476.88	73.7000
477.23	72.0500
477.58	71.4000
477.93	72.8500
478.28	72.0000
478.64	72.4500
478.99	72.6500
479.34	72.1000
479.69	72.4500
480.04	73.6000
480.39	73.6500
480.74	72.5500
481.09	72.4000
481.44	73.2000
481.79	71.6000
482.15	72.6000
482.50	72.1000
482.85	72.6000
483.20	72.9500
483.55	73.2000
483.90	73.6000
484.25	72.3500
484.60	71.8000
484.95	72.5000
485.30	71.6000
485.65	73.0500
486.00	72.5000
486.35	72.0500
486.70	71.8000
487.05	72.0500
487.40	72.3000
487.75	71.5000
488.10	71.7000
488.45	71.0500
488.80	71.6000
489.15	71.7500
489.50	74.7000
489.85	87.7500
490.20	102.6000
490.55	113.4000
490.90	116.6500
491.25	102.9000
491.60	91.8000
491.95	83.2000
492.30	75.6000
492.65	71.8500
493.00	71.5000
493.35	71.1500
493.70	70.5500
494.05	70.4500
494.40	70.1500
494.75	69.9500
495.10	70.7500
495.45	69.4000
495.80	70.3000
496.15	71.3000
496.50	68.8000
496.84	68.9500
497.19	69.1000
497.54	70.0000
497.89	69.3500
498.24	69.7000
498.59	70.5000
498.94	69.3500
499.29	68.5500
499.64	68.4500
499.99	68.0000
500.33	69.0500
500.68	70.6500
501.03	69.2000
501.38	68.9500
501.73	70.1000
502.08	69.0500
502.43	69.5500
502.77	68.7000
503.12	68.3000
503.47	68.2000
503.82	68.4000
504.17	68.7000
504.52	69.9500
504.86	68.4000
505.21	68.8500
505.56	68.6000
505.91	68.5500
506.26	67.4000
506.61	68.0500
506.95	69.1000
507.30	67.5000
507.65	68.0000
508.00	66.8000
508.35	68.4000
508.69	67.2000
509.04	68.1500
509.39	68.8000
509.74	68.0000
510.08	68.4500
510.43	68.2500
510.78	68.7500
511.13	69.0000
511.47	67.1500
511.82	67.4500
512.17	67.9000
512.52	68.2500
512.86	68.3500
513.21	67.6000
513.56	67.1000
513.91	67.6000
514.25	67.5500
514.60	66.7500
514.95	67.6000
515.30	67.6000
515.64	67.3000
515.99	68.2000
516.34	68.1000
516.68	67.6500
517.03	67.6500
517.38	67.2000
517.72	67.7500
518.07	68.6500
518.42	69.3000
518.76	68.2500
519.11	69.0000
519.46	69.3000
519.80	69.3500
520.15	68.7000
520.50	69.2500
520.84	68.6000
521.19	69.6000
521.54	68.9500
521.88	68.7000
522.23	69.3500
522.58	69.8500
522.92	70.1000
523.27	69.2500
523.61	69.3500
523.96	69.8000
524.31	70.0500
524.65	70.2000
525.00	69.2500
525.34	70.1500
525.69	68.5500
526.04	69.7500
526.38	70.0000
526.73	69.1500
527.07	68.8500
527.42	70.3500
527.76	70.0000
528.11	70.5000
528.46	68.9500
528.80	69.0500
529.15	69.9500
529.49	70.5000
529.84	70.1500
530.18	70.6500
530.53	71.1000
530.87	70.7500
531.22	71.0500
531.56	71.5500
531.91	71.0000
532.25	71.0500
532.60	72.3000
532.94	72.7500
533.29	73.4500
533.63	74.5500
533.98	74.2000
534.32	75.3000
534.67	76.5500
535.01	75.9500
535.36	78.1500
535.70	77.7500
536.05	79.7000
536.39	81.3500
536.74	81.4500
537.08	84.7500
537.43	86.8500
537.77	87.4500
538.12	91.2500
538.46	93.6500
538.80	99.2500
539.15	108.4000
539.49	119.0000
539.84	132.5500
540.18	136.4500
540.53	136.6000
540.87	137.2000
541.21	143.2500
541.56	151.0500
541.90	160.5000
542.25	172.6000
542.59	190.5500
542.93	225.9500
543.28	276.2000
543.62	388.1000
543.97	1098.3000
544.31	4095.0000
544.65	4095.0000
545.00	4095.0000
545.34	4095.0000
545.68	4095.0000
546.03	4095.0000
546.37	4095.0000
546.71	4095.0000
547.06	4095.0000
547.40	1204.9000
547.74	549.7500
548.09	346.4000
548.43	251.2000
548.77	203.8500
549.12	173.9500
549.46	150.3500
549.80	136.6500
550.15	130.3500
550.49	124.9000
550.83	118.1000
551.17	113.6500
551.52	106.9000
551.86	101.0500
552.20	96.8500
552.55	94.3000
552.89	90.9000
553.23	88.6000
553.57	87.3000
553.92	84.7500
554.26	82.7000
554.60	81.6000
554.94	79.1500
555.29	78.5500
555.63	76.6000
555.97	76.4500
556.31	76.0000
556.66	73.5500
557.00	73.2500
557.34	73.9000
557.68	73.1000
558.02	72.3000
558.37	71.1500
558.71	70.6000
559.05	71.2000
559.39	71.6500
559.73	69.8000
560.08	69.1000
560.42	69.0500
560.76	69.2000
561.10	68.8500
561.44	68.8500
561.78	68.5000
562.13	68.4500
562.47	68.7000
562.81	68.1000
563.15	68.8500
563.49	68.3500
563.83	67.2500
564.17	68.9500
564.52	67.6000
564.86	69.9500
565.20	68.9500
565.54	68.6000
565.88	69.1000
566.22	69.6500
566.56	69.6000
566.90	70.4000
567.24	70.5000
567.59	71.0500
567.93	70.3500
568.27	69.5000
568.61	70.3000
568.95	70.0500
569.29	70.4000
569.63	71.5500
569.97	72.4000
570.31	73.8500
570.65	74.8000
570.99	76.0000
571.33	77.1500
571.67	77.9500
572.01	78.4000
572.35	79.1500
572.69	81.6500
573.03	82.7500
573.37	86.1000
573.71	88.4500
574.05	91.4500
574.39	101.0000
574.73	125.9000
575.07	524.8000
575.41	2019.8000
575.75	3013.6001
576.09	3629.0000
576.43	3126.2500
576.77	2372.8999
577.11	2040.6000
577.45	2912.4500
577.79	3514.3501
578.13	3902.6001
578.47	3529.4500
578.81	2611.9500
579.15	2006.6500
579.49	1430.2500
579.83	821.4000
580.17	409.4000
580.51	219.8500
580.85	145.6500
581.19	116.2000
581.53	100.1000
581.87	91.9000
582.20	86.2000
582.54	82.5000
582.88	79.7500
583.22	76.7000
583.56	76.9500
583.90	76.3500
584.24	74.7000
584.58	73.4000
584.92	72.4500
585.25	71.9500
585.59	71.0000
585.93	70.7000
586.27	70.3000
586.61	69.7500
586.95	69.1000
587.29	69.4500
587.62	67.7000
587.96	67.8000
588.30	68.2000
588.64	66.7500
588.98	67.1500
589.31	66.3000
589.65	65.4500
589.99	65.6000
590.33	66.4500
590.67	65.5000
591.01	65.2000
591.34	66.5000
591.68	66.2000
592.02	65.3000
592.36	64.9000
592.69	65.7500
593.03	64.6500
593.37	65.6500
593.71	65.4000
594.04	65.4500
594.38	65.1000
594.72	65.7500
595.06	65.4000
595.39	64.8500
595.73	64.6000
596.07	65.1500
596.41	64.7500
596.74	68.9000
597.08	64.6500
597.42	64.4000
597.76	64.0000
598.09	63.8500
598.43	64.1500
598.77	64.2000
599.10	64.6500
599.44	64.9500
599.78	66.7500
600.11	65.3000
600.45	63.8000
600.79	63.5000
601.12	63.7000
601.46	63.3000
601.80	65.0000
602.13	64.6000
602.47	65.0000
602.81	64.9500
603.14	65.3500
603.48	64.5500
603.82	63.9500
604.15	64.0000
604.49	63.2500
604.82	63.8500
605.16	64.1500
605.50	64.4500
605.83	64.4500
606.17	64.2000
606.50	64.8500
606.84	65.0500
607.18	64.9500
607.51	65.0500
607.85	63.1500
608.18	63.1000
608.52	63.3500
608.86	63.5500
609.19	62.2500
609.53	62.3000
609.86	63.0500
610.20	63.4500
610.53	64.1500
610.87	64.3500
611.20	65.3500
611.54	65.8500
611.87	65.0000
612.21	64.5000
612.54	63.6500
612.88	64.4000
613.21	63.4500
613.55	62.8000
613.88	64.3500
614.22	63.2000
614.55	63.2000
614.89	63.1000
615.22	63.6500
615.56	63.9000
615.89	62.4500
616.23	63.0000
616.56	63.0000
616.90	62.9000
617.23	63.1500
617.57	62.3000
617.90	62.8000
618.24	62.7000
618.57	63.4000
618.90	62.8000
619.24	63.5500
619.57	64.0000
619.91	62.8000
620.24	61.9000
620.58	62.5500
620.91	61.9000
621.24	62.6500
621.58	62.0000
621.91	63.2000
622.25	63.5500
622.58	63.6000
622.91	64.2000
623.25	63.9000
623.58	62.6500
623.91	63.4000
624.25	61.3500
624.58	62.5500
624.92	61.7000
625.25	62.1500
625.58	62.3500
625.92	61.5000
626.25	61.8500
626.58	62.2500
626.92	61.3500
627.25	61.5500
627.58	62.5000
627.91	62.6500
628.25	61.7000
628.58	61.9500
628.91	62.6000
629.25	61.5500
629.58	60.6500
629.91	61.5500
630.25	61.9000
630.58	61.6000
630.91	59.8000
631.24	59.7500
631.58	62.5000
631.91	61.9500
632.24	60.9000
632.57	61.9500
632.91	61.1500
633.24	61.5000
633.57	60.6500
633.90	60.3500
634.24	60.5000
634.57	61.1500
634.90	60.9500
635.23	60.3500
635.56	59.8500
635.90	62.1000
636.23	61.7000
636.56	60.4000
636.89	60.7000
637.22	60.4000
637.56	61.0500
637.89	60.3500
638.22	60.1500
638.55	60.6000
638.88	61.2500
639.21	61.2500
639.55	60.6000
639.88	60.6000
640.21	60.3000
640.54	61.1500
640.87	61.0000
641.20	60.1000
641.53	61.3000
641.87	60.8500
642.20	60.4500
642.53	60.9000
642.86	61.1000
643.19	60.8000
643.52	59.5000
643.85	60.8000
644.18	61.2000
644.51	60.0000
644.84	60.3500
645.18	61.6000
645.51	60.8500
645.84	60.6500
646.17	60.1500
646.50	60.4500
646.83	62.0000
647.16	59.5500
647.49	60.4500
647.82	60.8000
648.15	60.3500
648.48	60.6000
648.81	59.4000
649.14	60.6000
649.47	60.6000
649.80	59.9000
650.13	61.1500
650.46	60.4000
650.79	59.9000
651.12	61.0000
651.45	61.0000
651.78	59.9500
652.11	60.5500
652.44	60.5500
652.77	58.8000
653.10	60.8500
653.43	60.3000
653.76	60.8500
654.09	61.4000
654.42	60.1500
654.75	60.5000
655.08	59.2000
655.41	60.0500
655.74	60.0500
656.07	60.1500
656.39	59.6000
656.72	60.6000
657.05	59.7000
657.38	60.4000
657.71	59.3000
658.04	60.2500
658.37	60.3500
658.70	59.9000
659.03	59.3000
659.36	60.7500
659.68	60.2500
660.01	58.8000
660.34	60.3500
660.67	60.8500
661.00	59.6500
661.33	60.8500
661.66	60.2500
661.98	60.5000
662.31	60.3000
662.64	60.5500
662.97	60.2000
663.30	60.1500
663.63	59.7500
663.95	59.5000
664.28	59.7000
664.61	59.9000
664.94	60.7000
665.27	59.9500
665.59	59.6500
665.92	60.2000
666.25	61.6500
666.58	61.9500
666.91	62.4000
667.23	62.2500
667.56	61.7500
667.89	61.5000
668.22	61.7000
668.54	62.9000
668.87	59.5000
669.20	60.3500
669.53	60.5500
669.85	59.7000
670.18	60.6000
670.51	60.0500
670.83	61.4000
671.16	61.8500
671.49	60.4500
671.82	59.9500
672.14	60.6500
672.47	59.8500
672.80	60.0000
673.12	60.4000
673.45	59.7000
673.78	59.7000
674.10	61.1500
674.43	60.6000
674.76	60.7500
675.08	60.8000
675.41	60.4000
675.74	60.1000
676.06	59.7500
676.39	60.5000
676.72	58.6500
677.04	58.7000
677.37	60.0000
677.69	60.2500
678.02	58.8000
678.35	59.7000
678.67	59.1500
679.00	58.8500
679.32	59.6500
679.65	59.9000
679.98	60.3000
680.30	59.7500
680.63	59.2000
680.95	59.5000
681.28	58.8500
681.60	59.6500
681.93	59.2000
682.26	60.1000
682.58	60.7500
682.91	59.7000
683.23	59.5000
683.56	60.1000
683.88	59.1000
684.21	58.9000
684.53	59.9500
684.86	59.9000
685.18	58.8000
685.51	59.2500
685.83	59.2500
686.16	60.8500
686.48	60.6000
686.81	60.1500
687.13	60.5000
687.46	60.2500
687.78	59.8500
688.11	61.0000
688.43	60.6000
688.76	59.3000
689.08	61.4000
689.41	64.6500
689.73	68.2500
690.05	71.7500
690.38	72.3500
690.70	67.7500
691.03	67.2000
691.35	66.1000
691.68	65.4000
692.00	63.8500
692.32	61.6500
692.65	61.8500
692.97	61.1000
693.29	61.3000
693.62	60.7500
693.94	61.4500
694.27	61.8500
694.59	65.3000
694.91	107.4500
695.24	215.5500
695.56	299.7000
695.88	356.2500
696.21	343.2500
696.53	272.9000
696.85	233.5500
697.18	203.5000
697.50	174.1500
697.82	140.1500
698.15	106.7500
698.47	84.3000
698.79	71.7500
699.12	66.2500
699.44	63.1000
699.76	60.8000
700.09	61.2000
700.41	60.0500
700.73	60.9500
701.05	59.9500
701.38	59.6500
701.70	59.5500
702.02	59.3500
702.34	59.7000
702.67	60.1500
702.99	59.6000
703.31	58.9000
703.63	59.3000
703.96	60.0000
704.28	60.0500
704.60	60.0500
704.92	61.2000
705.25	78.4500
705.57	99.0500
705.89	114.8500
706.21	122.9500
706.53	113.9500
706.86	100.7000
707.18	92.7500
707.50	88.1000
707.82	83.6500
708.14	76.8500
708.46	69.1500
708.79	64.9000
709.11	62.3000
709.43	61.3500
709.75	59.9500
710.07	59.9000
710.39	59.8500
710.71	59.5000
711.04	59.4000
711.36	59.8000
711.68	59.3000
712.00	59.6000
712.32	59.0000
712.64	58.8000
712.96	60.3000
713.28	61.8500
713.60	65.1000
713.92	65.9500
714.24	67.7000
714.57	65.8000
714.89	64.9500
715.21	62.1000
715.53	63.3000
715.85	62.2000
716.17	61.7500
716.49	60.2000
716.81	59.1000
717.13	58.8000
717.45	61.1000
717.77	58.9500
718.09	59.4500
718.41	59.7500
718.73	58.4500
719.05	58.4500
719.37	60.6000
719.69	59.0000
720.01	59.4000
720.33	58.6000
720.65	60.5500
720.97	58.6500
721.29	59.2000
721.61	59.8000
721.93	58.6500
722.25	59.0000
722.57	59.4000
722.89	59.2500
723.21	59.2000
723.52	59.0500
723.84	59.0500
724.16	58.2000
724.48	59.5000
724.80	60.0000
725.12	59.1500
725.44	60.6500
725.76	68.3000
726.08	90.7000
726.40	105.2500
726.72	118.4000
727.03	118.1000
727.35	105.5500
727.67	94.1500
727.99	86.6000
728.31	81.5500
728.63	77.4500
728.95	71.6500
729.26	67.3000
729.58	63.3500
729.90	61.0000
730.22	60.6000
730.54	59.5000
730.86	59.5000
731.17	60.4000
731.49	58.8500
731.81	59.3000
732.13	59.3000
732.45	59.5500
732.76	58.7500
733.08	59.2000
733.40	59.0500
733.72	59.7000
734.03	59.6000
734.35	59.6500
734.67	59.2500
734.99	60.6000
735.30	60.0500
735.62	59.6000
735.94	60.7000
736.26	59.6500
736.57	61.8000
736.89	74.4500
737.21	110.0000
737.53	137.2000
737.84	156.7000
738.16	154.0500
738.48	131.8500
738.79	113.9000
739.11	99.8500
739.43	93.1000
739.74	88.1000
740.06	81.6500
740.38	73.9500
740.69	66.2000
741.01	63.1500
741.33	61.5500
741.64	60.6500
741.96	59.7500
742.28	58.8500
742.59	59.8000
742.91	59.5000
743.23	60.3500
743.54	61.3500
743.86	60.7000
744.17	59.7500
744.49	59.2000
744.81	60.6000
745.12	59.7500
745.44	59.4500
745.75	60.0500
746.07	60.4000
746.38	60.7500
746.70	60.2500
747.02	60.6000
747.33	61.1500
747.65	61.0000
747.96	62.1000
748.28	62.1500
748.59	63.5000
748.91	90.1500
749.22	151.3500
749.54	201.9500
749.85	239.3500
750.17	259.8500
750.48	240.9500
750.80	222.7500
751.11	211.5000
751.43	189.0000
751.74	165.3000
752.06	144.0500
752.37	125.1500
752.69	106.1000
753.00	93.0000
753.32	83.2000
753.63	76.2000
753.95	68.0500
754.26	66.6000
754.58	64.2000
754.89	63.5000
755.20	64.2000
755.52	64.6000
755.83	65.9000
756.15	66.8500
756.46	68.5000
756.78	70.4500
757.09	75.0000
757.40	78.8500
757.72	83.2000
758.03	86.0500
758.34	88.8500
758.66	94.4500
758.97	102.0500
759.29	121.0500
759.60	214.5000
759.91	716.1000
760.23	1223.2500
760.54	1517.7000
760.85	1617.3500
761.17	1259.0000
761.48	914.8000
761.79	697.4500
762.11	611.2000
762.42	715.0500
762.73	757.4500
763.05	753.4000
763.36	638.5500
763.67	448.5500
763.98	326.9500
764.30	269.2000
764.61	248.1000
764.92	229.9000
765.23	209.6500
765.55	173.0000
765.86	131.1500
766.17	102.2000
766.48	82.7500
766.80	73.7000
767.11	68.2000
767.42	65.0500
767.73	64.7000
768.05	62.9000
768.36	63.4000
768.67	62.1500
768.98	62.2000
769.29	61.4000
769.61	61.9000
769.92	62.1000
770.23	61.6500
770.54	62.4000
770.85	75.1500
771.17	149.0000
771.48	228.6500
771.79	278.4000
772.10	299.8500
772.41	248.1000
772.72	194.9000
773.03	162.4000
773.35	148.4000
773.66	140.6000
773.97	136.6000
774.28	127.9000
774.59	110.7500
774.90	90.8500
775.21	76.5000
775.52	67.5000
775.83	64.2000
776.15	61.3000
776.46	60.3500
776.77	60.3000
777.08	60.4000
777.39	59.5000
777.70	59.0000
778.01	58.7000
778.32	58.5500
778.63	58.6500
778.94	58.8500
779.25	58.5500
779.56	58.1000
779.87	59.1500
780.18	58.7000
780.49	58.0000
780.80	58.2000
781.11	58.7500
781.42	58.3000
781.73	58.1000
782.04	58.7000
782.35	59.1000
782.66	58.0000
782.97	58.3000
783.28	58.4000
783.59	58.3500
783.90	59.1000
784.21	58.5000
784.52	57.6500
784.83	57.7500
785.14	57.4000
785.45	58.0000
785.76	58.0500
786.06	58.5000
786.37	58.0000
786.68	58.1000
786.99	58.3000
787.30	58.4000
787.61	58.4000
787.92	57.5500
788.23	58.0500
788.54	57.4500
788.84	58.4500
789.15	57.3500
789.46	57.4500
789.77	57.9500
790.08	58.0000
790.39	57.9000
790.70	59.1500
791.00	58.0500
791.31	57.6000
791.62	58.0000
791.93	57.8000
792.24	58.3000
792.54	58.8500
792.85	58.3500
793.16	59.6000
793.47	71.3500
793.78	94.4000
794.08	109.2000
794.39	118.5000
794.70	115.9500
795.01	101.2500
795.31	93.6000
795.62	89.1500
795.93	84.8500
796.24	83.7500
796.54	83.2000
796.85	81.5500
797.16	77.5500
797.47	70.9000
797.77	65.6500
798.08	62.6000
798.39	59.7500
798.69	59.3000
799.00	60.6500
799.31	71.5000
799.62	88.1000
799.92	100.6500
800.23	119.1500
800.54	129.6500
800.84	127.8500
801.15	128.5500
801.46	119.3500
801.76	109.9000
802.07	102.4000
802.37	98.7000
802.68	93.6500
802.99	92.1500
803.29	86.2500
803.60	80.4000
803.91	74.4000
804.21	70.0000
804.52	64.0500
804.82	61.9500
805.13	59.8000
805.44	58.9000
805.74	58.8500
806.05	57.6000
806.35	58.3000
806.66	58.0000
806.96	58.5500
807.27	58.6500
807.57	58.7500
807.88	57.1000
808.19	58.0000
808.49	59.0000
808.80	60.6500
809.10	74.5000
809.41	93.5000
809.71	105.9500
810.02	121.0500
810.32	148.3500
810.63	176.4500
810.93	196.5500
811.24	206.7500
811.54	193.8000
811.85	172.7000
812.15	158.1000
812.45	147.8500
812.76	142.3500
813.06	132.9500
813.37	123.9500
813.67	120.1500
813.98	108.4000
814.28	95.4500
814.58	79.7000
814.89	70.7500
815.19	65.5500
815.50	61.4500
815.80	60.8000
816.11	59.3500
816.41	57.9500
816.71	57.6000
817.02	57.3500
817.32	58.1500
817.62	58.0000
817.93	58.8000
818.23	58.3000
818.53	57.3500
818.84	58.0500
819.14	56.7500
819.44	56.7500
819.75	57.9500
820.05	58.4500
820.35	57.5500
820.66	57.4000
820.96	57.1500
821.26	57.9500
821.57	57.7000
821.87	56.5000
822.17	58.1500
822.48	57.8000
822.78	57.9500
823.08	58.4000
823.38	58.3000
823.69	57.6000
823.99	57.4000
824.29	58.5000
824.59	58.3000
824.90	61.8500
825.20	74.4500
825.50	99.1000
825.80	115.6000
826.10	129.1000
826.41	131.3000
826.71	119.6500
827.01	112.8500
827.31	109.7500
827.61	105.2500
827.92	103.5000
828.22	99.9500
828.52	99.1500
828.82	97.3500
829.12	90.9500
829.42	83.0000
829.73	72.7000
830.03	66.1500
830.33	62.6500
830.63	60.8500
830.93	59.4500
831.23	58.2500
831.53	58.2000
831.83	57.7000
832.14	57.8000
832.44	57.9500
832.74	57.6500
833.04	57.3000
833.34	57.8000
833.64	59.3000
833.94	57.6000
834.24	57.3000
834.54	57.8000
834.84	57.7500
835.14	57.2500
835.44	57.3500
835.74	56.0500
836.04	58.2500
836.34	58.2000
836.64	56.9000
836.95	56.6000
837.25	57.6000
837.55	56.7500
837.85	56.9500
838.15	57.2000
838.45	58.4000
838.74	57.7000
839.04	59.1500
839.34	59.5500
839.64	62.6500
839.94	71.4500
840.24	79.6000
840.54	86.8500
840.84	89.9000
841.14	88.7500
841.44	95.1000
841.74	103.1000
842.04	109.7000
842.34	116.6000
842.64	114.9000
842.94	111.3500
843.24	109.1500
843.53	104.2000
843.83	101.5000
844.13	96.0000
844.43	90.1000
844.73	86.7500
845.03	83.2000
845.33	80.2500
845.63	74.2500
845.92	69.0500
846.22	64.9000
846.52	60.5500
846.82	59.0500
847.12	58.5000
847.42	57.4000
847.71	57.9000
848.01	58.9500
848.31	57.4500
848.61	57.6500
848.91	57.6000
849.20	57.4000
849.50	57.3500
849.80	57.5500
850.10	57.9500
850.39	58.5000
850.69	58.2000
850.99	58.4000
851.29	61.0500
851.59	65.3500
851.88	67.6000
852.18	68.3000
852.48	68.8000
852.77	68.1000
853.07	67.7000
853.37	67.8500
853.67	67.6000
853.96	67.5500
854.26	66.2000
854.56	66.4000
854.85	66.5500
855.15	64.8500
855.45	63.0500
855.74	60.8500
856.04	60.0500
856.34	58.5000
856.63	58.7500
856.93	57.3000
857.23	57.5500
857.52	56.8500
857.82	56.8500
858.11	57.6500
858.41	56.9500
858.71	57.4000
859.00	58.2000
859.30	57.7000
859.59	57.0500
859.89	56.6500
860.19	56.7500
860.48	55.5500
860.78	57.5500
861.07	57.3000
861.37	57.0500
861.66	57.2000
861.96	56.7000
862.26	57.0500
862.55	56.8000
862.85	57.1000
863.14	57.0000
863.44	57.6000
863.73	57.0000
864.03	57.6000
864.32	56.8500
864.62	57.4000
864.91	57.4500
865.21	57.6500
865.50	56.8500
865.80	57.5000
866.09	57.4500
866.39	57.2500
866.68	57.5500
866.97	58.1500
867.27	58.6000
867.56	58.6500
867.86	57.6500
868.15	58.4000
868.45	58.3500
868.74	58.9000
869.03	58.4000
869.33	58.9000
869.62	58.8500
869.92	58.9500
870.21	57.2500
870.50	58.6500
870.80	57.4500
871.09	57.9000
871.39	57.2500
871.68	56.4500
871.97	56.6500
872.27	57.4000
872.56	57.6500
872.85	56.1500
873.15	56.5500
873.44	57.6000
873.73	56.5000
874.03	57.4500
874.32	58.1500
874.61	57.1000
874.90	57.7500
875.20	57.0500
875.49	56.5500
875.78	57.1500
>>>>>End Spectral Data<<<<<
