OOIBase32 Version 1.0.0.8 Data File
++++++++++++++++++++++++++++++++++++
Date: Monday, January 21, 1980, 08:53:25
User: Valued Ocean Optics Customer
Spectrometer Serial Number: Unknown
Spectrometer Channel: Master
Integration Time (msec): 6
Spectra Averaged: 20
Boxcar Smoothing: 0
Correct for Electrical Dark: Disabled
Time Normalized: Disabled
Dual-beam Reference: Disabled
Reference Channel: Master
>>>>>Begin Spectral Data<<<<<
179.00	0.0000
179.38	0.0000
179.75	54.8500
180.13	54.7500
180.51	55.4500
180.88	55.4500
181.26	55.5500
181.64	55.2500
182.02	55.5500
182.39	56.3500
182.77	56.1000
183.15	56.5500
183.52	56.3000
183.90	55.8000
184.28	55.9000
184.65	56.0000
185.03	55.6500
185.41	57.0500
185.78	55.9500
186.16	56.1000
186.53	55.4000
186.91	56.2500
187.29	56.4000
187.66	56.3500
188.04	57.3500
188.42	59.3000
188.79	60.9000
189.17	59.5000
189.55	59.6500
189.92	61.0500
190.30	59.9000
190.67	59.5000
191.05	59.4500
191.43	59.5000
191.80	60.0000
192.18	61.0000
192.56	60.2000
192.93	59.9500
193.31	59.8000
193.68	60.2000
194.06	59.3500
194.44	60.3500
194.81	60.7000
195.19	60.0000
195.56	59.6000
195.94	60.7500
196.32	59.5500
196.69	59.3000
197.07	59.5000
197.44	59.7500
197.82	60.1500
198.19	60.7500
198.57	60.3500
198.95	60.5500
199.32	60.1000
199.70	60.6000
200.07	60.0000
200.45	61.1500
200.82	61.1000
201.20	60.5000
201.57	60.1500
201.95	60.4500
202.33	59.1000
202.70	61.3500
203.08	60.4000
203.45	61.6000
203.83	62.1500
204.20	60.4000
204.58	61.1500
204.95	59.6000
205.33	60.2500
205.70	61.0000
206.08	60.7500
206.45	60.5500
206.83	60.9000
207.20	60.2500
207.58	59.9500
207.95	61.7000
208.33	60.6000
208.70	61.6500
209.08	60.7000
209.45	60.9000
209.83	60.9500
210.20	61.2000
210.58	61.4000
210.95	61.7000
211.33	60.1500
211.70	60.5500
212.08	60.6500
212.45	60.2000
212.83	61.1500
213.20	60.9500
213.58	60.7500
213.95	60.5500
214.33	61.0000
214.70	60.8500
215.07	60.7500
215.45	60.8500
215.82	61.7500
216.20	61.3000
216.57	61.0000
216.95	60.9000
217.32	59.9000
217.70	60.9500
218.07	61.5000
218.44	61.8000
218.82	60.9000
219.19	61.5500
219.57	60.8000
219.94	62.0000
220.32	60.5000
220.69	61.0500
221.06	60.4000
221.44	61.8000
221.81	61.3000
222.19	60.7000
222.56	61.5500
222.93	60.5500
223.31	61.2500
223.68	61.2000
224.06	60.5000
224.43	61.3000
224.80	60.9500
225.18	60.9500
225.55	60.5000
225.92	60.6500
226.30	60.7500
226.67	61.4500
227.05	60.5500
227.42	61.3500
227.79	62.0000
228.17	61.7500
228.54	61.8500
228.91	61.2500
229.29	60.7000
229.66	61.1500
230.03	60.9000
230.41	62.3000
230.78	61.3000
231.15	61.0000
231.53	61.4000
231.90	61.0500
232.27	60.3500
232.65	61.2500
233.02	61.5500
233.39	60.6000
233.77	60.7500
234.14	61.0500
234.51	61.0500
234.89	61.0000
235.26	60.5500
235.63	60.3000
236.01	60.4500
236.38	60.8500
236.75	60.9000
237.12	61.3500
237.50	61.7000
237.87	61.5000
238.24	61.8000
238.62	61.3500
238.99	61.2000
239.36	61.0500
239.73	60.9000
240.11	62.0000
240.48	61.3000
240.85	61.7500
241.23	61.1000
241.60	60.0000
241.97	61.0000
242.34	62.0000
242.72	60.2500
243.09	61.5500
243.46	61.1000
243.83	61.7500
244.21	62.2000
244.58	61.1000
244.95	60.8500
245.32	61.5000
245.70	61.3500
246.07	61.6500
246.44	62.4000
246.81	61.7000
247.18	61.3500
247.56	61.2500
247.93	61.4000
248.30	61.4000
248.67	61.9000
249.04	62.2000
249.42	62.0500
249.79	62.3500
250.16	61.5500
250.53	61.3000
250.90	61.8000
251.28	61.7500
251.65	62.0000
252.02	61.8000
252.39	62.0000
252.76	61.3000
253.14	61.1000
253.51	61.3500
253.88	60.8000
254.25	61.0000
254.62	61.6500
254.99	61.5000
255.37	61.4500
255.74	61.5000
256.11	60.2000
256.48	61.1500
256.85	61.3000
257.22	61.4500
257.59	61.4000
257.97	61.9500
258.34	61.8000
258.71	61.7500
259.08	62.0000
259.45	61.7000
259.82	62.3000
260.19	61.6500
260.56	63.1500
260.94	61.6000
261.31	62.4000
261.68	62.3500
262.05	62.0000
262.42	63.4500
262.79	62.1500
263.16	60.4500
263.53	62.8000
263.90	63.0500
264.28	61.7500
264.65	61.5500
265.02	61.6000
265.39	62.3000
265.76	62.5000
266.13	62.1000
266.50	62.6500
266.87	61.9000
267.24	61.3500
267.61	62.3500
267.98	61.9000
268.35	61.9000
268.72	61.5000
269.09	62.1000
269.46	62.0500
269.84	61.9000
270.21	63.1000
270.58	61.8500
270.95	62.6500
271.32	63.2000
271.69	62.1500
272.06	61.1000
272.43	62.4500
272.80	61.7000
273.17	62.1500
273.54	61.4000
273.91	60.8500
274.28	62.5500
274.65	63.2000
275.02	62.1500
275.39	61.0000
275.76	62.5000
276.13	62.3000
276.50	61.4000
276.87	62.4500
277.24	62.0500
277.61	62.2000
277.98	62.4000
278.35	62.4000
278.72	60.6500
279.09	61.4000
279.46	62.7000
279.83	62.2000
280.20	62.3500
280.57	62.2000
280.94	62.1000
281.31	61.6500
281.67	62.8000
282.04	62.1000
282.41	62.1000
282.78	62.9000
283.15	62.8000
283.52	62.7000
283.89	62.5000
284.26	63.3000
284.63	63.1000
285.00	63.5500
285.37	61.8500
285.74	61.6500
286.11	61.9000
286.48	62.1000
286.85	62.6500
287.21	63.0500
287.58	62.7500
287.95	63.1500
288.32	62.2500
288.69	60.9000
289.06	62.1500
289.43	63.1000
289.80	62.6500
290.17	62.1000
290.54	61.5000
290.90	61.7500
291.27	61.4000
291.64	62.8500
292.01	62.3000
292.38	62.5500
292.75	63.9000
293.12	62.3500
293.48	62.3000
293.85	61.5500
294.22	62.5000
294.59	62.6500
294.96	62.8500
295.33	62.9000
295.70	62.2500
296.06	62.5500
296.43	61.7000
296.80	61.9500
297.17	62.7500
297.54	63.3500
297.91	62.3500
298.27	62.0000
298.64	61.7500
299.01	63.2500
299.38	62.7500
299.75	62.8500
300.11	62.1000
300.48	62.3000
300.85	61.6500
301.22	63.2500
301.59	62.5500
301.95	62.6500
302.32	62.0000
302.69	62.6000
303.06	62.9500
303.43	61.8000
303.79	63.3500
304.16	62.1500
304.53	62.0000
304.90	62.5500
305.26	62.8000
305.63	61.9500
306.00	62.4500
306.37	63.5000
306.73	61.9000
307.10	63.3000
307.47	62.7500
307.84	62.0000
308.20	62.6500
308.57	63.1000
308.94	62.4500
309.31	63.4000
309.67	63.1000
310.04	63.2000
310.41	64.0500
310.77	63.8000
311.14	63.9000
311.51	63.3000
311.88	63.5500
312.24	62.6000
312.61	63.4500
312.98	63.0000
313.34	63.5500
313.71	62.9000
314.08	62.9500
314.44	63.2000
314.81	63.2000
315.18	62.5500
315.55	63.6000
315.91	63.5000
316.28	62.7500
316.65	63.1500
317.01	63.9000
317.38	63.3000
317.75	63.2500
318.11	62.9000
318.48	63.9000
318.84	63.2500
319.21	63.4000
319.58	63.0000
319.94	63.7000
320.31	63.7500
320.68	63.6000
321.04	63.3500
321.41	62.7500
321.78	63.1500
322.14	62.5000
322.51	62.8500
322.87	63.5500
323.24	64.0000
323.61	63.3500
323.97	62.8000
324.34	63.4500
324.70	62.8000
325.07	63.3500
325.44	63.5000
325.80	63.4500
326.17	63.8000
326.53	63.9500
326.90	64.2000
327.27	63.6500
327.63	63.2000
328.00	63.7500
328.36	63.5000
328.73	64.0500
329.09	63.7500
329.46	65.2000
329.83	63.7500
330.19	64.2500
330.56	65.5000
330.92	64.0500
331.29	63.9500
331.65	63.8500
332.02	65.1500
332.38	63.7500
332.75	63.4500
333.11	63.7500
333.48	65.0500
333.84	63.2000
334.21	63.3500
334.58	64.0000
334.94	64.9500
335.31	64.7500
335.67	64.2000
336.04	65.6000
336.40	64.0000
336.77	64.9500
337.13	63.9500
337.50	65.1500
337.86	66.0000
338.22	65.0000
338.59	65.2500
338.95	66.0500
339.32	64.6500
339.68	64.8000
340.05	65.9500
340.41	65.3000
340.78	64.7500
341.14	65.0000
341.51	65.4000
341.87	64.8000
342.24	65.8500
342.60	66.3500
342.96	65.5000
343.33	66.1000
343.69	66.2500
344.06	66.2000
344.42	65.1000
344.79	66.7500
345.15	67.3500
345.51	66.1000
345.88	64.9000
346.24	66.2500
346.61	65.8500
346.97	65.8000
347.34	66.8500
347.70	66.8500
348.06	67.8000
348.43	66.7000
348.79	67.4500
349.16	67.6000
349.52	67.2000
349.88	66.3000
350.25	67.5000
350.61	67.5000
350.97	67.4000
351.34	67.3500
351.70	67.9000
352.07	68.2500
352.43	68.9500
352.79	68.0500
353.16	67.3500
353.52	68.3500
353.88	68.2000
354.25	68.6500
354.61	67.5500
354.97	68.0000
355.34	68.4500
355.70	69.1500
356.06	68.1500
356.43	68.4000
356.79	69.4000
357.15	68.9000
357.52	67.9500
357.88	70.0500
358.24	70.0000
358.60	69.6500
358.97	69.9500
359.33	70.9000
359.69	70.6500
360.06	70.7000
360.42	70.5500
360.78	70.9500
361.14	72.3000
361.51	72.4500
361.87	71.7000
362.23	72.7500
362.60	72.2000
362.96	73.4500
363.32	73.4500
363.68	73.3000
364.05	72.9000
364.41	74.5000
364.77	75.1000
365.13	74.4500
365.50	74.7500
365.86	74.0500
366.22	73.9000
366.58	75.9000
366.95	75.3500
367.31	75.3500
367.67	76.8000
368.03	76.6000
368.39	77.7000
368.76	77.4500
369.12	76.7500
369.48	77.5500
369.84	78.2500
370.20	79.7000
370.57	79.3000
370.93	79.2000
371.29	80.9000
371.65	80.3500
372.01	79.9500
372.38	80.8500
372.74	80.9500
373.10	81.1000
373.46	82.1000
373.82	82.3500
374.18	81.1500
374.55	84.0000
374.91	83.5000
375.27	84.4500
375.63	84.2000
375.99	84.9000
376.35	85.4000
376.71	85.3500
377.08	86.4000
377.44	87.4000
377.80	88.3000
378.16	88.0500
378.52	89.1000
378.88	89.8500
379.24	90.8000
379.60	92.9000
379.97	93.5500
380.33	94.2500
380.69	94.0000
381.05	94.5500
381.41	96.6500
381.77	97.5000
382.13	97.6500
382.49	98.6000
382.85	98.6500
383.21	100.2500
383.57	99.6000
383.94	103.8500
384.30	103.4000
384.66	103.2500
385.02	101.9000
385.38	104.9000
385.74	105.9000
386.10	107.9500
386.46	109.2500
386.82	110.2000
387.18	107.4000
387.54	108.8500
387.90	109.8000
388.26	113.1000
388.62	114.8000
388.98	114.9000
389.34	115.7000
389.70	115.5000
390.06	112.9000
390.42	114.8000
390.78	120.7000
391.14	124.1000
391.50	121.7500
391.86	124.2500
392.22	125.6500
392.58	124.9000
392.94	119.4500
393.30	125.4000
393.66	127.0500
394.02	128.6000
394.38	123.9500
394.74	130.8000
395.10	129.8000
395.46	134.4500
395.82	133.4000
396.18	131.7000
396.54	137.8500
396.90	141.6000
397.26	139.6000
397.62	141.0500
397.98	148.6000
398.34	139.9000
398.70	142.5000
399.05	139.3000
399.41	139.6000
399.77	143.9000
400.13	148.3500
400.49	148.7000
400.85	156.5500
401.21	146.7500
401.57	157.7500
401.93	155.3500
402.29	152.6500
402.65	157.6000
403.00	161.0500
403.36	166.3500
403.72	162.5500
404.08	173.9000
404.44	162.2500
404.80	165.4500
405.16	172.9000
405.52	178.6500
405.87	179.4500
406.23	183.3000
406.59	172.0000
406.95	173.6000
407.31	177.4500
407.67	177.7500
408.03	180.3000
408.38	188.1500
408.74	197.5500
409.10	195.3000
409.46	188.0000
409.82	195.5500
410.17	194.4000
410.53	187.7000
410.89	198.0500
411.25	184.4500
411.61	192.4000
411.97	204.8500
412.32	202.1000
412.68	209.3500
413.04	204.3500
413.40	186.0000
413.75	201.0500
414.11	209.6000
414.47	207.3000
414.83	220.1500
415.19	214.7500
415.54	202.4000
415.90	218.1000
416.26	215.2500
416.62	225.6500
416.97	209.3500
417.33	226.6500
417.69	228.5000
418.05	224.9500
418.40	214.4500
418.76	227.0500
419.12	241.0500
419.48	235.3500
419.83	247.9500
420.19	222.6500
420.55	228.2000
420.90	252.7500
421.26	238.4000
421.62	232.4500
421.98	253.3000
422.33	261.1000
422.69	265.3000
423.05	269.7000
423.40	243.9000
423.76	237.0500
424.12	265.0500
424.47	263.8000
424.83	264.2500
425.19	263.4500
425.54	259.2000
425.90	273.4500
426.26	285.3000
426.61	287.0000
426.97	247.2000
427.33	282.7500
427.68	280.6500
428.04	298.9000
428.40	314.5000
428.75	320.9500
429.11	290.8000
429.47	324.7000
429.82	319.1500
430.18	317.5500
430.53	305.3500
430.89	310.1000
431.25	317.7000
431.60	328.4500
431.96	322.2000
432.31	316.2500
432.67	339.8000
433.03	346.1000
433.38	333.8000
433.74	347.5000
434.09	341.5000
434.45	326.2500
434.81	327.1000
435.16	350.9000
435.52	330.6500
435.87	319.9000
436.23	326.9000
436.58	336.1000
436.94	355.2500
437.30	354.0500
437.65	373.0500
438.01	360.9000
438.36	368.2000
438.72	367.6000
439.07	357.1000
439.43	361.3000
439.78	393.0000
440.14	407.1500
440.49	370.5500
440.85	376.6000
441.20	396.9000
441.56	388.5000
441.91	421.7000
442.27	392.3500
442.62	398.4500
442.98	408.7500
443.33	399.0500
443.69	404.0000
444.04	397.0000
444.40	382.8500
444.75	424.0000
445.11	429.1000
445.46	440.1000
445.82	436.0000
446.17	411.9000
446.53	436.8500
446.88	478.9000
447.23	405.3000
447.59	410.6500
447.94	409.5500
448.30	444.8000
448.65	430.0500
449.01	457.1000
449.36	457.3500
449.72	498.3000
450.07	511.5500
450.42	496.6000
450.78	475.1000
451.13	501.8000
451.49	480.8500
451.84	463.4500
452.19	470.5000
452.55	499.5500
452.90	501.8500
453.26	533.6000
453.61	553.7000
453.96	468.8000
454.32	525.9000
454.67	528.5500
455.02	495.3000
455.38	514.7000
455.73	511.4000
456.09	560.7000
456.44	559.2000
456.79	549.5000
457.15	552.5500
457.50	521.4000
457.85	545.3000
458.21	536.2000
458.56	567.4500
458.91	557.6500
459.27	526.6000
459.62	544.2500
459.97	551.6000
460.32	573.2500
460.68	574.3500
461.03	570.4500
461.38	585.8000
461.74	647.9000
462.09	624.8000
462.44	594.1000
462.80	585.5500
463.15	596.5000
463.50	594.8000
463.85	644.2000
464.21	617.7000
464.56	653.7000
464.91	615.4500
465.26	635.1000
465.62	631.5000
465.97	671.3000
466.32	672.7500
466.67	672.1500
467.03	674.6500
467.38	691.0000
467.73	699.2500
468.08	717.2500
468.44	724.0000
468.79	725.4500
469.14	688.1000
469.49	728.7000
469.85	747.4500
470.20	815.6000
470.55	813.2000
470.90	819.4000
471.25	784.1500
471.61	809.0500
471.96	822.0000
472.31	842.0000
472.66	837.2500
473.01	868.0000
473.36	893.8000
473.72	879.9500
474.07	914.6000
474.42	924.2000
474.77	921.9500
475.12	952.2000
475.47	974.0500
475.83	980.1500
476.18	981.9000
476.53	976.2500
476.88	1025.9000
477.23	1035.8000
477.58	1028.6500
477.93	1055.2000
478.28	1043.6500
478.64	1070.0500
478.99	1098.6000
479.34	1112.6500
479.69	1132.3000
480.04	1163.3500
480.39	1169.9500
480.74	1152.3000
481.09	1219.1500
481.44	1223.1500
481.79	1220.3500
482.15	1228.2000
482.50	1253.4500
482.85	1256.3500
483.20	1298.0500
483.55	1299.5000
483.90	1324.2500
484.25	1319.4500
484.60	1319.4500
484.95	1349.5500
485.30	1358.5000
485.65	1379.8500
486.00	1401.5500
486.35	1380.4500
486.70	1393.4500
487.05	1443.2500
487.40	1447.4500
487.75	1463.1500
488.10	1472.7000
488.45	1466.2500
488.80	1482.2000
489.15	1519.1000
489.50	1517.8000
489.85	1533.5000
490.20	1527.6500
490.55	1555.8500
490.90	1567.7500
491.25	1577.7500
491.60	1569.6500
491.95	1578.3000
492.30	1592.1500
492.65	1617.9500
493.00	1614.2500
493.35	1623.0500
493.70	1632.6000
494.05	1643.6000
494.40	1676.2000
494.75	1682.8000
495.10	1669.5500
495.45	1678.6500
495.80	1691.0500
496.15	1709.1000
496.50	1694.4000
496.84	1702.2500
497.19	1713.9500
497.54	1738.8500
497.89	1743.8500
498.24	1741.9500
498.59	1768.9500
498.94	1752.2000
499.29	1760.8000
499.64	1770.6000
499.99	1788.5500
500.33	1793.5000
500.68	1799.7500
501.03	1812.2000
501.38	1815.6500
501.73	1840.6000
502.08	1832.8500
502.43	1853.5500
502.77	1868.4500
503.12	1870.5000
503.47	1873.5500
503.82	1893.4500
504.17	1907.7500
504.52	1917.8000
504.86	1923.2000
505.21	1952.6500
505.56	1943.0500
505.91	1956.5000
506.26	1954.4000
506.61	1981.3000
506.95	1986.0000
507.30	1995.8000
507.65	2025.1500
508.00	2019.1000
508.35	2028.9000
508.69	2031.2500
509.04	2047.9500
509.39	2048.9500
509.74	2059.0500
510.08	2073.1499
510.43	2098.5000
510.78	2095.8501
511.13	2110.4500
511.47	2122.2000
511.82	2134.6001
512.17	2130.8000
512.52	2155.8000
512.86	2176.8000
513.21	2187.5000
513.56	2192.1499
513.91	2218.6499
514.25	2217.4500
514.60	2230.4500
514.95	2243.1499
515.30	2249.1001
515.64	2253.8501
515.99	2290.8999
516.34	2291.8000
516.68	2311.3000
517.03	2320.6001
517.38	2325.8000
517.72	2364.7000
518.07	2350.6499
518.42	2360.2000
518.76	2389.7000
519.11	2398.0000
519.46	2415.6001
519.80	2405.8000
520.15	2419.0500
520.50	2444.0000
520.84	2438.6001
521.19	2462.3501
521.54	2466.9500
521.88	2461.9500
522.23	2497.3999
522.58	2488.0500
522.92	2496.8000
523.27	2516.1499
523.61	2517.2500
523.96	2521.9500
524.31	2561.4500
524.65	2565.8999
525.00	2564.8501
525.34	2540.9500
525.69	2557.1499
526.04	2591.8000
526.38	2596.3501
526.73	2591.7000
527.07	2624.3999
527.42	2614.9500
527.76	2633.6001
528.11	2648.8999
528.46	2641.0000
528.80	2632.8999
529.15	2629.5000
529.49	2633.3999
529.84	2650.3501
530.18	2661.7000
530.53	2686.0500
530.87	2678.5500
531.22	2679.5000
531.56	2676.8000
531.91	2693.8501
532.25	2688.6499
532.60	2687.7000
532.94	2707.2500
533.29	2698.8999
533.63	2693.3000
533.98	2694.5500
534.32	2715.9500
534.67	2740.3999
535.01	2752.9500
535.36	2739.8999
535.70	2769.0000
536.05	2772.3000
536.39	2796.4500
536.74	2759.8501
537.08	2744.3501
537.43	2740.4500
537.77	2769.1001
538.12	2798.8501
538.46	2801.5500
538.80	2815.0500
539.15	2787.4500
539.49	2813.3999
539.84	2840.6001
540.18	2839.6499
540.53	2829.7000
540.87	2832.3501
541.21	2856.4500
541.56	2848.3999
541.90	2867.9500
542.25	2854.8000
542.59	2854.8999
542.93	2893.5000
543.28	2875.5000
543.62	2886.8999
543.97	2895.6499
544.31	2904.9500
544.65	2908.1001
545.00	2922.8501
545.34	2936.5500
545.68	2933.0000
546.03	2924.3501
546.37	2954.2500
546.71	2961.2000
547.06	2971.5500
547.40	2974.7000
547.74	3007.6499
548.09	2987.1001
548.43	2998.5500
548.77	3007.1001
549.12	3006.3000
549.46	3006.1001
549.80	3027.5000
550.15	3045.7000
550.49	3041.0500
550.83	3053.2000
551.17	3065.0000
551.52	3058.0500
551.86	3061.1499
552.20	3081.5500
552.55	3100.8999
552.89	3099.5000
553.23	3112.3999
553.57	3127.8000
553.92	3121.6001
554.26	3144.2500
554.60	3132.5000
554.94	3146.2500
555.29	3157.9500
555.63	3163.3999
555.97	3189.1001
556.31	3187.1001
556.66	3200.6499
557.00	3185.9500
557.34	3206.6001
557.68	3230.1499
558.02	3233.3000
558.37	3243.7000
558.71	3235.0500
559.05	3237.7500
559.39	3254.5000
559.73	3274.3999
560.08	3268.8000
560.42	3286.5500
560.76	3285.0000
561.10	3289.5000
561.44	3285.3000
561.78	3315.2500
562.13	3323.8501
562.47	3303.7500
562.81	3337.7000
563.15	3331.7500
563.49	3334.9500
563.83	3359.2000
564.17	3359.8999
564.52	3362.5000
564.86	3375.7000
565.20	3372.0000
565.54	3369.3999
565.88	3375.2000
566.22	3391.8999
566.56	3381.3999
566.90	3407.1001
567.24	3413.0500
567.59	3402.8000
567.93	3410.3000
568.27	3426.4500
568.61	3443.1001
568.95	3427.1499
569.29	3430.8999
569.63	3465.7500
569.97	3453.3501
570.31	3405.9500
570.65	3433.5000
570.99	3449.7000
571.33	3464.5500
571.67	3434.4500
572.01	3448.0500
572.35	3467.0000
572.69	3477.6001
573.03	3482.3000
573.37	3472.8501
573.71	3471.3501
574.05	3444.8000
574.39	3460.3501
574.73	3486.1499
575.07	3463.3000
575.41	3473.2000
575.75	3491.8000
576.09	3516.2000
576.43	3496.6001
576.77	3498.6499
577.11	3485.8999
577.45	3496.6001
577.79	3482.3501
578.13	3510.7500
578.47	3472.5000
578.81	3474.3999
579.15	3488.5500
579.49	3528.0500
579.83	3523.4500
580.17	3525.7500
580.51	3520.7000
580.85	3525.2500
581.19	3521.2000
581.53	3504.8501
581.87	3514.6499
582.20	3525.7000
582.54	3525.9500
582.88	3524.2500
583.22	3511.1499
583.56	3491.7000
583.90	3533.2500
584.24	3518.5000
584.58	3518.4500
584.92	3544.1499
585.25	3548.6499
585.59	3532.8501
585.93	3548.1499
586.27	3567.8000
586.61	3524.1001
586.95	3556.6001
587.29	3567.5000
587.62	3534.1499
587.96	3553.4500
588.30	3564.6001
588.64	3549.5500
588.98	3548.8000
589.31	3570.3501
589.65	3545.2500
589.99	3534.8000
590.33	3569.0000
590.67	3573.7000
591.01	3575.0000
591.34	3587.8000
591.68	3584.1001
592.02	3596.1001
592.36	3583.3000
592.69	3585.5000
593.03	3589.5000
593.37	3596.6499
593.71	3597.7500
594.04	3600.2000
594.38	3591.8999
594.72	3623.8501
595.06	3606.8000
595.39	3604.0000
595.73	3609.7500
596.07	3642.2000
596.41	3627.1499
596.74	3628.8501
597.08	3636.3999
597.42	3636.0500
597.76	3618.1001
598.09	3646.2000
598.43	3625.4500
598.77	3651.4500
599.10	3669.8999
599.44	3655.6499
599.78	3651.3000
600.11	3662.0000
600.45	3669.5500
600.79	3662.7500
601.12	3657.2500
601.46	3680.1499
601.80	3683.5500
602.13	3668.0000
602.47	3695.8501
602.81	3672.3501
603.14	3674.1001
603.48	3697.9500
603.82	3694.7500
604.15	3696.0000
604.49	3694.8000
604.82	3698.7000
605.16	3704.4500
605.50	3695.1001
605.83	3720.8000
606.17	3727.1001
606.50	3721.9500
606.84	3704.5500
607.18	3715.4500
607.51	3719.6001
607.85	3729.8000
608.18	3726.8000
608.52	3733.3000
608.86	3729.0000
609.19	3745.6499
609.53	3713.8999
609.86	3757.7000
610.20	3748.7500
610.53	3740.3999
610.87	3728.1499
611.20	3779.3000
611.54	3726.5500
611.87	3744.2000
612.21	3756.6001
612.54	3743.1001
612.88	3744.8000
613.21	3757.0500
613.55	3761.8999
613.88	3733.7500
614.22	3753.0500
614.55	3730.8501
614.89	3725.6499
615.22	3724.5000
615.56	3728.3999
615.89	3751.2000
616.23	3757.8000
616.56	3712.8000
616.90	3745.6499
617.23	3726.0500
617.57	3761.3000
617.90	3745.4500
618.24	3751.0000
618.57	3753.0000
618.90	3734.5500
619.24	3727.3501
619.57	3737.6499
619.91	3768.8999
620.24	3701.2000
620.58	3739.3000
620.91	3734.9500
621.24	3739.8501
621.58	3746.6001
621.91	3719.0000
622.25	3734.8501
622.58	3725.2000
622.91	3757.0000
623.25	3717.6001
623.58	3725.2500
623.91	3716.3000
624.25	3731.0000
624.58	3736.7500
624.92	3724.5000
625.25	3727.2500
625.58	3704.1001
625.92	3740.6001
626.25	3714.5500
626.58	3746.4500
626.92	3722.1001
627.25	3735.2500
627.58	3711.9500
627.91	3725.9500
628.25	3727.2500
628.58	3735.3501
628.91	3710.8999
629.25	3726.2500
629.58	3706.8501
629.91	3709.0000
630.25	3725.0500
630.58	3714.7500
630.91	3711.7000
631.24	3714.9500
631.58	3718.6001
631.91	3728.1499
632.24	3681.2500
632.57	3696.6499
632.91	3706.2500
633.24	3690.2500
633.57	3699.6001
633.90	3693.7500
634.24	3696.2500
634.57	3698.0000
634.90	3705.2500
635.23	3662.3999
635.56	3672.6001
635.90	3674.3000
636.23	3678.1001
636.56	3672.5000
636.89	3682.1001
637.22	3679.0000
637.56	3671.6499
637.89	3639.0000
638.22	3665.2000
638.55	3669.7500
638.88	3623.6001
639.21	3649.2000
639.55	3632.8501
639.88	3639.1499
640.21	3646.0500
640.54	3642.0500
640.87	3619.8501
641.20	3628.2500
641.53	3653.7500
641.87	3626.7000
642.20	3627.2500
642.53	3620.7500
642.86	3631.3999
643.19	3625.6001
643.52	3622.4500
643.85	3621.7000
644.18	3612.5000
644.51	3604.5500
644.84	3607.1499
645.18	3594.2000
645.51	3594.5000
645.84	3601.4500
646.17	3597.3000
646.50	3607.1499
646.83	3612.7500
647.16	3574.3000
647.49	3588.1001
647.82	3589.6499
648.15	3588.7000
648.48	3598.8000
648.81	3593.1001
649.14	3576.2500
649.47	3593.3999
649.80	3572.6001
650.13	3563.3000
650.46	3585.6499
650.79	3575.5000
651.12	3587.3501
651.45	3573.0500
651.78	3551.8000
652.11	3571.2000
652.44	3555.6001
652.77	3562.8000
653.10	3581.1001
653.43	3572.0500
653.76	3568.1001
654.09	3544.8000
654.42	3563.5500
654.75	3563.0500
655.08	3537.2000
655.41	3540.9500
655.74	3508.0000
656.07	3553.4500
656.39	3548.3999
656.72	3540.9500
657.05	3528.2000
657.38	3559.0500
657.71	3552.3999
658.04	3536.6499
658.37	3533.3501
658.70	3543.6001
659.03	3530.6001
659.36	3536.0500
659.68	3534.5500
660.01	3533.0500
660.34	3542.8000
660.67	3531.3501
661.00	3546.2500
661.33	3507.1001
661.66	3505.5500
661.98	3524.3501
662.31	3517.3501
662.64	3505.5000
662.97	3506.8501
663.30	3489.4500
663.63	3499.7000
663.95	3475.3501
664.28	3490.0500
664.61	3478.9500
664.94	3487.2500
665.27	3503.9500
665.59	3474.6001
665.92	3491.7500
666.25	3467.3999
666.58	3446.7500
666.91	3497.3501
667.23	3462.4500
667.56	3444.1499
667.89	3438.3999
668.22	3451.4500
668.54	3458.5500
668.87	3464.4500
669.20	3441.1001
669.53	3450.1499
669.85	3445.4500
670.18	3430.1001
670.51	3417.7500
670.83	3411.0500
671.16	3430.7500
671.49	3441.6499
671.82	3423.8501
672.14	3399.8999
672.47	3405.4500
672.80	3400.3000
673.12	3411.2000
673.45	3416.6001
673.78	3364.8000
674.10	3399.2000
674.43	3372.9500
674.76	3365.5000
675.08	3384.3999
675.41	3350.3999
675.74	3364.4500
676.06	3369.3501
676.39	3345.4500
676.72	3345.1001
677.04	3345.7500
677.37	3339.8501
677.69	3324.7000
678.02	3312.6499
678.35	3313.2500
678.67	3280.8999
679.00	3311.3999
679.32	3308.4500
679.65	3287.3999
679.98	3305.2500
680.30	3271.0000
680.63	3265.7000
680.95	3255.0500
681.28	3269.6001
681.60	3238.8999
681.93	3241.5000
682.26	3236.7500
682.58	3231.1001
682.91	3231.0000
683.23	3208.2500
683.56	3200.3000
683.88	3217.9500
684.21	3192.4500
684.53	3202.7500
684.86	3204.3501
685.18	3185.8000
685.51	3188.2500
685.83	3178.9500
686.16	3142.3501
686.48	3142.8000
686.81	3163.7000
687.13	3150.3501
687.46	3144.0000
687.78	3146.5500
688.11	3113.8999
688.43	3110.9500
688.76	3116.0000
689.08	3103.0000
689.41	3089.7000
689.73	3074.0000
690.05	3077.8999
690.38	3078.6001
690.70	3071.8000
691.03	3045.2500
691.35	3046.1499
691.68	3014.6001
692.00	3022.8999
692.32	3049.3000
692.65	3027.3501
692.97	3020.3501
693.29	3023.4500
693.62	2995.8000
693.94	3012.4500
694.27	2980.3000
694.59	2938.4500
694.91	2972.6001
695.24	2978.0500
695.56	2950.5500
695.88	2938.3000
696.21	2903.3000
696.53	2887.1001
696.85	2923.0000
697.18	2927.6001
697.50	2909.0500
697.82	2921.3000
698.15	2904.2000
698.47	2893.3999
698.79	2903.5000
699.12	2905.5500
699.44	2854.1499
699.76	2847.5500
700.09	2854.8501
700.41	2852.6499
700.73	2833.5500
701.05	2851.7500
701.38	2823.7500
701.70	2829.3501
702.02	2829.7500
702.34	2818.7500
702.67	2820.3000
702.99	2821.6001
703.31	2791.7000
703.63	2799.2000
703.96	2783.6499
704.28	2772.2500
704.60	2761.3501
704.92	2773.2500
705.25	2754.1499
705.57	2757.3999
705.89	2743.5500
706.21	2740.3501
706.53	2734.8999
706.86	2737.1499
707.18	2733.9500
707.50	2749.6001
707.82	2707.1499
708.14	2722.2500
708.46	2730.5000
708.79	2700.4500
709.11	2722.3999
709.43	2688.1001
709.75	2681.4500
710.07	2677.8000
710.39	2686.8999
710.71	2674.0500
711.04	2658.5000
711.36	2653.1001
711.68	2646.9500
712.00	2642.6001
712.32	2650.0000
712.64	2626.7000
712.96	2627.3501
713.28	2600.2000
713.60	2624.4500
713.92	2600.8000
714.24	2608.3999
714.57	2601.3501
714.89	2593.9500
715.21	2584.2000
715.53	2561.7000
715.85	2568.9500
716.17	2567.3999
716.49	2569.0500
716.81	2559.6001
717.13	2557.5000
717.45	2537.7000
717.77	2531.9500
718.09	2523.3501
718.41	2528.6001
718.73	2515.3999
719.05	2508.3000
719.37	2467.1499
719.69	2492.2500
720.01	2490.3999
720.33	2464.4500
720.65	2459.2000
720.97	2466.4500
721.29	2437.5500
721.61	2460.8000
721.93	2450.4500
722.25	2430.1001
722.57	2428.1001
722.89	2414.1499
723.21	2419.9500
723.52	2404.6499
723.84	2383.8000
724.16	2403.3501
724.48	2398.3501
724.80	2401.0000
725.12	2384.0500
725.44	2385.1499
725.76	2369.5500
726.08	2375.6001
726.40	2357.8501
726.72	2369.2000
727.03	2379.3999
727.35	2364.1001
727.67	2342.2000
727.99	2347.1001
728.31	2343.6499
728.63	2333.8000
728.95	2342.1499
729.26	2322.2000
729.58	2315.5500
729.90	2318.0500
730.22	2290.3000
730.54	2288.5500
730.86	2302.8000
731.17	2304.0500
731.49	2287.5000
731.81	2297.6499
732.13	2291.0500
732.45	2259.9500
732.76	2263.2500
733.08	2264.3000
733.40	2259.7000
733.72	2253.2500
734.03	2243.8000
734.35	2245.3999
734.67	2256.8999
734.99	2230.3501
735.30	2236.7500
735.62	2229.5000
735.94	2226.8000
736.26	2211.1001
736.57	2197.5000
736.89	2220.2500
737.21	2182.9500
737.53	2176.1499
737.84	2174.1001
738.16	2153.3501
738.48	2153.3501
738.79	2162.1001
739.11	2142.6001
739.43	2132.1001
739.74	2131.9500
740.06	2113.7000
740.38	2106.3999
740.69	2098.3000
741.01	2090.3501
741.33	2077.8000
741.64	2075.7000
741.96	2060.2500
742.28	2059.5500
742.59	2033.6000
742.91	2034.4500
743.23	2025.5500
743.54	2034.7000
743.86	2012.0500
744.17	2001.5500
744.49	2008.0000
744.81	1997.3500
745.12	1985.0000
745.44	1966.3000
745.75	1965.5500
746.07	1956.1000
746.38	1951.3500
746.70	1944.6000
747.02	1950.6000
747.33	1932.4500
747.65	1929.5500
747.96	1921.5500
748.28	1917.2500
748.59	1911.5000
748.91	1900.1000
749.22	1911.7500
749.54	1900.7000
749.85	1904.5000
750.17	1894.9500
750.48	1880.6000
750.80	1879.7500
751.11	1877.6500
751.43	1875.0500
751.74	1870.7500
752.06	1868.2000
752.37	1859.8000
752.69	1862.4000
753.00	1855.5500
753.32	1854.0000
753.63	1858.6000
753.95	1845.9000
754.26	1826.7500
754.58	1835.5000
754.89	1836.7500
755.20	1834.1500
755.52	1832.2500
755.83	1829.7500
756.15	1825.4000
756.46	1809.4500
756.78	1803.8000
757.09	1805.9000
757.40	1798.7500
757.72	1798.0000
758.03	1791.0500
758.34	1794.2000
758.66	1796.2000
758.97	1791.9000
759.29	1787.8500
759.60	1784.6500
759.91	1770.0500
760.23	1771.6000
760.54	1775.2000
760.85	1770.5000
761.17	1757.3000
761.48	1755.3000
761.79	1732.2500
762.11	1737.1000
762.42	1731.3500
762.73	1743.0000
763.05	1731.9000
763.36	1739.0000
763.67	1734.1000
763.98	1709.1000
764.30	1685.3500
764.61	1706.6000
764.92	1702.0000
765.23	1695.9500
765.55	1680.8500
765.86	1681.9500
766.17	1687.6500
766.48	1680.3000
766.80	1652.9500
767.11	1671.5000
767.42	1638.3500
767.73	1634.5500
768.05	1645.4000
768.36	1644.1000
768.67	1654.2000
768.98	1638.1500
769.29	1656.9500
769.61	1628.4000
769.92	1602.6500
770.23	1610.5500
770.54	1577.0000
770.85	1592.9500
771.17	1592.4000
771.48	1586.9500
771.79	1579.9000
772.10	1572.9000
772.41	1570.2000
772.72	1550.3500
773.03	1537.6000
773.35	1534.5000
773.66	1522.9500
773.97	1524.2000
774.28	1516.0500
774.59	1503.0500
774.90	1504.3500
775.21	1510.8000
775.52	1508.9500
775.83	1498.2500
776.15	1481.0000
776.46	1471.6000
776.77	1464.2000
777.08	1469.7000
777.39	1467.5000
777.70	1449.2000
778.01	1451.9500
778.32	1452.7000
778.63	1453.9500
778.94	1438.3000
779.25	1428.3500
779.56	1416.9000
779.87	1408.0000
780.18	1392.8500
780.49	1394.4000
780.80	1395.2000
781.11	1377.2000
781.42	1366.0000
781.73	1365.0500
782.04	1341.1500
782.35	1336.3500
782.66	1336.4000
782.97	1330.0500
783.28	1343.2000
783.59	1328.6000
783.90	1332.1500
784.21	1317.6500
784.52	1304.2500
784.83	1300.1500
785.14	1290.8000
785.45	1285.4500
785.76	1273.0000
786.06	1276.7000
786.37	1279.0500
786.68	1265.3000
786.99	1252.7000
787.30	1252.8000
787.61	1251.3500
787.92	1236.5500
788.23	1224.8500
788.54	1244.8000
788.84	1224.5500
789.15	1225.8000
789.46	1217.1500
789.77	1202.3000
790.08	1204.0000
790.39	1187.3000
790.70	1201.4500
791.00	1197.6000
791.31	1171.1500
791.62	1181.8000
791.93	1167.4500
792.24	1164.9500
792.54	1155.1500
792.85	1141.1000
793.16	1139.4000
793.47	1131.7500
793.78	1133.9500
794.08	1127.0000
794.39	1117.1500
794.70	1119.5000
795.01	1105.9500
795.31	1101.0000
795.62	1093.8500
795.93	1096.1500
796.24	1098.7500
796.54	1084.9500
796.85	1082.0000
797.16	1068.8500
797.47	1061.3500
797.77	1060.1000
798.08	1051.7500
798.39	1053.1000
798.69	1054.8000
799.00	1039.8000
799.31	1037.1500
799.62	1028.1000
799.92	1021.0500
800.23	1017.9500
800.54	1015.0500
800.84	1007.4000
801.15	1002.6000
801.46	1003.9000
801.76	1003.3000
802.07	984.6000
802.37	984.8500
802.68	976.9000
802.99	980.6000
803.29	963.1500
803.60	954.6500
803.91	947.8000
804.21	950.7500
804.52	955.3500
804.82	943.5500
805.13	950.7000
805.44	939.1500
805.74	930.4000
806.05	938.5000
806.35	924.6000
806.66	917.5000
806.96	918.0000
807.27	904.6000
807.57	905.1500
807.88	901.2000
808.19	890.5000
808.49	892.9000
808.80	882.6500
809.10	877.2500
809.41	882.8000
809.71	869.9000
810.02	869.8500
810.32	863.9000
810.63	865.1500
810.93	862.3500
811.24	852.6500
811.54	861.2500
811.85	852.7000
812.15	841.5500
812.45	836.2500
812.76	833.6000
813.06	826.4500
813.37	826.4500
813.67	828.3500
813.98	814.6000
814.28	805.3000
814.58	812.6500
814.89	803.0000
815.19	800.8000
815.50	791.4500
815.80	790.4000
816.11	783.0000
816.41	790.9000
816.71	786.0000
817.02	783.2500
817.32	776.3500
817.62	770.1000
817.93	771.1000
818.23	758.2000
818.53	760.8000
818.84	764.8000
819.14	749.6000
819.44	752.9500
819.75	746.9000
820.05	736.7500
820.35	731.1000
820.66	731.1000
820.96	733.3000
821.26	731.1500
821.57	727.7000
821.87	718.5500
822.17	721.8000
822.48	722.5500
822.78	716.8500
823.08	706.2000
823.38	710.0500
823.69	701.7500
823.99	699.5000
824.29	696.7000
824.59	688.1000
824.90	695.4500
825.20	687.2500
825.50	680.7000
825.80	677.8500
826.10	683.0000
826.41	676.2000
826.71	670.7500
827.01	669.0500
827.31	673.5500
827.61	667.9500
827.92	667.1000
828.22	661.5500
828.52	656.2000
828.82	654.4000
829.12	645.2000
829.42	648.5500
829.73	643.4500
830.03	639.5000
830.33	640.1000
830.63	633.6500
830.93	630.5500
831.23	622.3000
831.53	628.9500
831.83	624.5500
832.14	617.3500
832.44	617.3000
832.74	615.9500
833.04	615.8000
833.34	619.2500
833.64	608.7500
833.94	599.9000
834.24	603.5000
834.54	603.9500
834.84	599.3500
835.14	595.4500
835.44	591.9500
835.74	592.2500
836.04	583.5500
836.34	591.7500
836.64	587.1000
836.95	583.5500
837.25	577.8500
837.55	576.3500
837.85	575.7500
838.15	574.9500
838.45	571.0000
838.74	565.3500
839.04	558.6500
839.34	560.4000
839.64	553.2000
839.94	553.6000
840.24	550.2000
840.54	554.4500
840.84	553.0500
841.14	544.8000
841.44	546.3500
841.74	547.2500
842.04	539.8500
842.34	538.6500
842.64	530.6500
842.94	537.2000
843.24	536.7000
843.53	529.5500
843.83	525.4500
844.13	521.5000
844.43	519.9000
844.73	525.2000
845.03	516.2500
845.33	512.0500
845.63	512.6500
845.92	508.5000
846.22	508.5500
846.52	505.7500
846.82	505.3000
847.12	497.5500
847.42	499.7500
847.71	495.3000
848.01	494.4500
848.31	487.0500
848.61	490.1000
848.91	486.3500
849.20	490.7000
849.50	483.7000
849.80	483.8000
850.10	482.2500
850.39	475.9500
850.69	477.5000
850.99	474.4500
851.29	474.5000
851.59	468.3500
851.88	465.4000
852.18	464.3500
852.48	466.7000
852.77	458.6000
853.07	460.6000
853.37	456.6000
853.67	455.3000
853.96	454.2000
854.26	451.6000
854.56	446.7000
854.85	449.0000
855.15	446.1000
855.45	444.7000
855.74	438.5500
856.04	437.1500
856.34	437.3500
856.63	435.9000
856.93	427.8000
857.23	434.1000
857.52	425.6000
857.82	423.8000
858.11	426.4500
858.41	421.6000
858.71	420.8000
859.00	418.2500
859.30	418.3500
859.59	414.0000
859.89	409.8500
860.19	405.4500
860.48	405.3500
860.78	405.4500
861.07	405.5500
861.37	405.3500
861.66	404.5000
861.96	396.8000
862.26	395.7500
862.55	393.0500
862.85	393.8000
863.14	390.6500
863.44	388.2000
863.73	383.9500
864.03	380.9000
864.32	385.6000
864.62	382.2500
864.91	377.9500
865.21	375.8500
865.50	373.7500
865.80	373.4500
866.09	372.1500
866.39	370.2500
866.68	371.5000
866.97	362.6500
867.27	362.3500
867.56	359.0000
867.86	357.7000
868.15	354.6000
868.45	353.4000
868.74	349.4000
869.03	350.9500
869.33	349.8000
869.62	347.9000
869.92	347.1000
870.21	339.3500
870.50	337.2000
870.80	334.4000
871.09	335.4000
871.39	333.0500
871.68	335.1500
871.97	328.5500
872.27	331.4000
872.56	323.4000
872.85	327.1500
873.15	321.2500
873.44	317.7500
873.73	318.0000
874.03	315.2500
874.32	314.4000
874.61	312.4500
874.90	309.0500
875.20	309.1500
875.49	306.8000
875.78	304.8500
>>>>>End Spectral Data<<<<<
