>>>>>Begin Spectral Data<<<<<
179.00	0.0000
179.38	0.0000
179.75	55.5500
180.13	55.3500
180.51	55.7000
180.88	55.6000
181.26	55.6500
181.64	57.1500
182.02	55.9000
182.39	57.3000
182.77	56.3000
183.15	55.4500
183.52	56.4500
183.90	55.7500
184.28	55.7500
184.65	56.4000
185.03	56.3500
185.41	55.2000
185.78	55.4000
186.16	55.6000
186.53	55.7000
186.91	55.8000
187.29	57.3000
187.66	56.6000
188.04	56.6500
188.42	56.8500
188.79	55.4500
189.17	56.6500
189.55	55.7000
189.92	56.4000
190.30	56.1000
190.67	56.0500
191.05	55.4500
191.43	55.8000
191.80	56.8000
192.18	56.4500
192.56	57.0000
192.93	57.0000
193.31	56.6500
193.68	55.6500
194.06	56.3000
194.44	56.8500
194.81	57.4000
195.19	57.2500
195.56	56.8500
195.94	56.8500
196.32	56.4500
196.69	57.0000
197.07	56.6000
197.44	56.5000
197.82	57.2500
198.19	56.9000
198.57	56.0500
198.95	57.1000
199.32	56.1500
199.70	57.0000
200.07	56.0000
200.45	57.3500
200.82	56.9000
201.20	55.8500
201.57	56.9000
201.95	57.2000
202.33	56.7500
202.70	57.3000
203.08	56.4000
203.45	57.4000
203.83	56.9500
204.20	56.0500
204.58	57.3000
204.95	57.2000
205.33	57.0000
205.70	56.7000
206.08	57.3500
206.45	58.1500
206.83	56.1000
207.20	56.7000
207.58	55.8500
207.95	57.1500
208.33	55.7000
208.70	56.5000
209.08	56.7500
209.45	56.8500
209.83	56.8500
210.20	56.8000
210.58	57.0000
210.95	57.1500
211.33	57.5500
211.70	57.4000
212.08	57.3000
212.45	56.8500
212.83	57.2500
213.20	57.7000
213.58	57.0500
213.95	57.3000
214.33	56.7000
214.70	57.7500
215.07	56.8500
215.45	57.5000
215.82	56.9500
216.20	57.5500
216.57	56.3000
216.95	58.2000
217.32	58.8500
217.70	57.3500
218.07	57.9500
218.44	57.5000
218.82	57.9500
219.19	56.8000
219.57	56.7500
219.94	56.9000
220.32	57.4500
220.69	59.3000
221.06	57.2500
221.44	57.4000
221.81	57.7500
222.19	57.8000
222.56	57.2500
222.93	57.7500
223.31	56.9000
223.68	58.1000
224.06	57.4500
224.43	57.2500
224.80	57.4500
225.18	56.8500
225.55	56.8500
225.92	57.4000
226.30	57.2500
226.67	57.5500
227.05	58.1500
227.42	57.3000
227.79	57.2000
228.17	57.0000
228.54	57.1500
228.91	58.2500
229.29	57.2500
229.66	55.6000
230.03	56.4500
230.41	56.5500
230.78	56.6500
231.15	56.8000
231.53	57.1500
231.90	57.5500
232.27	57.4000
232.65	56.8500
233.02	56.2500
233.39	57.6000
233.77	57.2500
234.14	56.6500
234.51	57.7000
234.89	56.3500
235.26	57.7000
235.63	57.4500
236.01	56.7000
236.38	57.1500
236.75	56.9000
237.12	57.2000
237.50	57.0000
237.87	56.8500
238.24	56.9000
238.62	57.7000
238.99	57.0500
239.36	57.2000
239.73	57.8500
240.11	57.1500
240.48	56.7500
240.85	55.7500
241.23	57.4500
241.60	57.8500
241.97	57.5500
242.34	57.7500
242.72	56.9500
243.09	57.3500
243.46	56.7000
243.83	57.2500
244.21	57.4500
244.58	56.0000
244.95	57.6000
245.32	57.2500
245.70	57.1000
246.07	57.7500
246.44	56.9500
246.81	56.4000
247.18	57.5500
247.56	56.8000
247.93	57.6500
248.30	56.8500
248.67	57.2500
249.04	57.3000
249.42	56.7500
249.79	56.8500
250.16	57.6000
250.53	57.4500
250.90	56.8500
251.28	57.3500
251.65	56.9000
252.02	57.8000
252.39	57.2000
252.76	56.6000
253.14	56.1000
253.51	56.4500
253.88	56.9500
254.25	56.2500
254.62	56.5000
254.99	56.4500
255.37	58.2500
255.74	57.1500
256.11	56.2500
256.48	57.7000
256.85	57.3500
257.22	57.4500
257.59	56.7500
257.97	57.2500
258.34	56.2000
258.71	57.6000
259.08	57.2000
259.45	57.0000
259.82	57.1500
260.19	57.1000
260.56	56.1500
260.94	58.2000
261.31	57.7500
261.68	57.4000
262.05	58.6500
262.42	56.3500
262.79	57.0500
263.16	57.2000
263.53	56.8000
263.90	57.1500
264.28	57.3500
264.65	57.6000
265.02	56.9000
265.39	56.7500
265.76	57.1500
266.13	57.7000
266.50	56.7500
266.87	57.3500
267.24	57.7500
267.61	57.9500
267.98	57.3000
268.35	56.5000
268.72	57.7500
269.09	57.7500
269.46	56.4000
269.84	56.8000
270.21	58.3000
270.58	57.7500
270.95	58.1000
271.32	57.1000
271.69	57.2000
272.06	58.1000
272.43	57.1500
272.80	58.0500
273.17	58.3000
273.54	57.5500
273.91	57.8500
274.28	58.2500
274.65	56.7500
275.02	56.9000
275.39	57.1000
275.76	57.8000
276.13	57.3000
276.50	57.2000
276.87	57.5500
277.24	58.9000
277.61	57.9000
277.98	57.3000
278.35	58.0000
278.72	57.5000
279.09	57.2000
279.46	57.2500
279.83	57.8000
280.20	57.9500
280.57	56.9500
280.94	57.8500
281.31	57.5500
281.67	57.3000
282.04	57.6000
282.41	57.4500
282.78	56.5000
283.15	56.9500
283.52	57.5000
283.89	58.2000
284.26	57.1000
284.63	57.9500
285.00	56.6500
285.37	57.5500
285.74	57.8000
286.11	57.8500
286.48	57.0000
286.85	57.1000
287.21	58.2500
287.58	56.9000
287.95	57.3500
288.32	57.7500
288.69	57.1000
289.06	57.2000
289.43	57.2500
289.80	56.6000
290.17	56.7000
290.54	56.5000
290.90	57.3500
291.27	58.3500
291.64	56.6500
292.01	57.5000
292.38	57.4500
292.75	57.3500
293.12	58.5000
293.48	57.1000
293.85	57.0500
294.22	56.9500
294.59	57.4500
294.96	58.0000
295.33	58.0500
295.70	57.9500
296.06	57.7000
296.43	58.4500
296.80	57.7000
297.17	57.1500
297.54	57.7500
297.91	57.6000
298.27	57.8000
298.64	57.1000
299.01	57.3000
299.38	57.1500
299.75	56.5000
300.11	57.9000
300.48	57.1500
300.85	57.6500
301.22	58.2000
301.59	57.5500
301.95	57.5000
302.32	56.7500
302.69	58.1000
303.06	56.7000
303.43	57.3500
303.79	58.2500
304.16	58.1500
304.53	56.9500
304.90	57.4500
305.26	57.1000
305.63	58.4500
306.00	58.0500
306.37	57.3000
306.73	58.4500
307.10	57.0500
307.47	56.9500
307.84	57.1000
308.20	57.3000
308.57	56.8000
308.94	58.3000
309.31	57.5000
309.67	56.7000
310.04	57.7000
310.41	57.9500
310.77	57.7000
311.14	57.8500
311.51	57.0000
311.88	57.3500
312.24	57.0000
312.61	57.0500
312.98	57.2000
313.34	57.4500
313.71	58.5000
314.08	57.6500
314.44	57.0500
314.81	57.9000
315.18	57.1000
315.55	58.3500
315.91	58.7000
316.28	58.9500
316.65	58.6000
317.01	58.5000
317.38	57.5500
317.75	57.8500
318.11	58.0000
318.48	57.9500
318.84	57.3500
319.21	56.1500
319.58	56.8000
319.94	56.8000
320.31	57.7000
320.68	58.1000
321.04	56.9000
321.41	57.6500
321.78	57.6500
322.14	57.9500
322.51	57.5500
322.87	57.2500
323.24	57.5500
323.61	58.3000
323.97	57.5500
324.34	57.7000
324.70	57.5500
325.07	57.0500
325.44	57.2500
325.80	58.3500
326.17	57.7500
326.53	56.9500
326.90	56.6000
327.27	57.3500
327.63	57.7500
328.00	56.5000
328.36	56.6500
328.73	58.5500
329.09	57.1500
329.46	58.2500
329.83	58.5500
330.19	56.7000
330.56	57.6000
330.92	57.7500
331.29	57.0500
331.65	57.9000
332.02	57.6000
332.38	57.3500
332.75	58.3000
333.11	57.4500
333.48	57.3500
333.84	57.2500
334.21	57.8000
334.58	57.3500
334.94	57.1000
335.31	57.3000
335.67	56.9000
336.04	57.0500
336.40	57.2000
336.77	57.0000
337.13	57.0500
337.50	57.3500
337.86	57.3000
338.22	57.0000
338.59	57.6500
338.95	59.1500
339.32	57.6500
339.68	57.5500
340.05	56.7500
340.41	57.4500
340.78	58.1000
341.14	58.0500
341.51	56.6000
341.87	57.2500
342.24	57.1000
342.60	58.0500
342.96	58.0000
343.33	57.7500
343.69	57.2000
344.06	58.4000
344.42	57.0000
344.79	57.2500
345.15	57.8000
345.51	57.7500
345.88	57.4000
346.24	57.2000
346.61	57.3500
346.97	58.1500
347.34	58.4500
347.70	56.9000
348.06	57.6000
348.43	57.2500
348.79	56.7000
349.16	57.7500
349.52	58.1500
349.88	58.0000
350.25	57.9000
350.61	57.7500
350.97	57.6000
351.34	58.0000
351.70	57.8000
352.07	58.2500
352.43	57.4500
352.79	57.5000
353.16	57.2000
353.52	58.1500
353.88	57.7000
354.25	57.7000
354.61	58.2000
354.97	56.9000
355.34	57.3000
355.70	57.9000
356.06	56.2000
356.43	57.0000
356.79	57.6000
357.15	58.2500
357.52	57.6500
357.88	58.2000
358.24	58.3500
358.60	57.4000
358.97	58.2500
359.33	58.1000
359.69	58.0500
360.06	57.7500
360.42	57.9000
360.78	56.9000
361.14	56.5000
361.51	57.8000
361.87	58.8000
362.23	57.7500
362.60	58.2000
362.96	57.3000
363.32	57.1000
363.68	58.1000
364.05	57.8500
364.41	57.2000
364.77	57.6500
365.13	56.9500
365.50	58.3500
365.86	56.5500
366.22	57.9000
366.58	58.0500
366.95	58.0000
367.31	57.7500
367.67	57.3000
368.03	56.9000
368.39	56.9000
368.76	57.3500
369.12	57.3000
369.48	57.4000
369.84	57.0500
370.20	57.8500
370.57	57.1500
370.93	58.0500
371.29	57.5500
371.65	57.7500
372.01	57.3500
372.38	57.4000
372.74	57.8500
373.10	57.8000
373.46	56.7000
373.82	57.2500
374.18	56.9500
374.55	58.0000
374.91	58.1000
375.27	57.8000
375.63	57.6000
375.99	57.5000
376.35	58.1000
376.71	57.3500
377.08	57.5500
377.44	57.2500
377.80	58.0500
378.16	57.7000
378.52	57.5500
378.88	57.6500
379.24	57.0000
379.60	57.9000
379.97	57.9000
380.33	58.1000
380.69	57.8500
381.05	57.8000
381.41	57.8500
381.77	58.2500
382.13	57.5500
382.49	56.7500
382.85	57.0500
383.21	57.5000
383.57	57.9000
383.94	57.9500
384.30	57.4000
384.66	57.4000
385.02	57.5000
385.38	57.6000
385.74	58.0500
386.10	58.1500
386.46	57.7000
386.82	58.2000
387.18	58.5500
387.54	58.0000
387.90	56.4500
388.26	57.6000
388.62	58.5000
388.98	57.9500
389.34	57.3500
389.70	57.7500
390.06	57.7000
390.42	58.0500
390.78	57.5500
391.14	58.2000
391.50	57.6500
391.86	57.9000
392.22	57.6500
392.58	58.1000
392.94	58.1500
393.30	57.5000
393.66	57.6000
394.02	57.3000
394.38	57.0500
394.74	57.6500
395.10	58.0000
395.46	57.7500
395.82	57.4000
396.18	57.5500
396.54	57.2500
396.90	57.9000
397.26	58.2500
397.62	58.2000
397.98	58.3000
398.34	58.5500
398.70	58.0000
399.05	58.0000
399.41	58.8500
399.77	58.9000
400.13	58.2000
400.49	58.3500
400.85	57.6000
401.21	57.7500
401.57	58.0000
401.93	57.8000
402.29	58.3000
402.65	58.7000
403.00	59.0000
403.36	59.1500
403.72	58.2500
404.08	59.4500
404.44	58.5500
404.80	59.2500
405.16	59.0000
405.52	59.1000
405.87	60.0000
406.23	59.3000
406.59	60.1500
406.95	59.0500
407.31	59.6000
407.67	60.9500
408.03	60.6500
408.38	59.3000
408.74	61.7500
409.10	61.2000
409.46	62.1000
409.82	62.8500
410.17	62.9000
410.53	62.6500
410.89	63.0500
411.25	62.7500
411.61	64.4000
411.97	64.2000
412.32	65.7000
412.68	66.3000
413.04	65.5500
413.40	65.1500
413.75	66.3500
414.11	67.5500
414.47	67.9000
414.83	69.3000
415.19	69.8500
415.54	70.1500
415.90	71.4500
416.26	72.4500
416.62	74.5000
416.97	74.3500
417.33	76.6500
417.69	78.0500
418.05	77.8000
418.40	77.5000
418.76	79.7000
419.12	83.3000
419.48	84.0500
419.83	86.7500
420.19	83.1500
420.55	85.7000
420.90	92.4000
421.26	92.2000
421.62	93.2000
421.98	96.6500
422.33	100.1000
422.69	102.8500
423.05	107.2500
423.40	102.7500
423.76	101.8000
424.12	111.8500
424.47	116.2000
424.83	117.6000
425.19	119.1500
425.54	121.4000
425.90	127.8500
426.26	135.8500
426.61	138.6500
426.97	126.5000
427.33	142.4000
427.68	143.9500
428.04	157.0500
428.40	168.9000
428.75	175.7500
429.11	167.1000
429.47	186.7000
429.82	189.4500
430.18	193.7500
430.53	192.5500
430.89	200.7000
431.25	211.0500
431.60	222.9000
431.96	223.5500
432.31	225.5000
432.67	250.8500
433.03	261.0000
433.38	257.7000
433.74	273.8000
434.09	275.9500
434.45	272.3000
434.81	278.1500
435.16	308.7500
435.52	293.4500
435.87	293.6000
436.23	305.0500
436.58	320.2000
436.94	345.4000
437.30	351.0500
437.65	378.2000
438.01	374.6500
438.36	388.3000
438.72	394.1500
439.07	392.3000
439.43	408.3000
439.78	450.2000
440.14	478.3000
440.49	446.8000
440.85	463.7000
441.20	495.9000
441.56	498.3000
441.91	556.8000
442.27	520.1500
442.62	537.6500
442.98	568.1500
443.33	563.3000
443.69	583.6000
444.04	581.4000
444.40	570.4500
444.75	646.3500
445.11	663.0500
445.46	693.3500
445.82	696.5500
446.17	654.0500
446.53	710.6500
446.88	783.7500
447.23	655.2000
447.59	659.8000
447.94	657.3500
448.30	713.6500
448.65	685.0500
449.01	724.9000
449.36	713.6500
449.72	767.1000
450.07	780.0500
450.42	739.2000
450.78	686.5000
451.13	708.4000
451.49	660.9000
451.84	621.7500
452.19	615.1000
452.55	633.2000
452.90	609.4000
453.26	632.9500
453.61	637.1500
453.96	519.2500
454.32	560.8000
454.67	547.4000
455.02	491.4000
455.38	498.9000
455.73	478.2000
456.09	504.6000
456.44	491.5500
456.79	469.5000
457.15	458.0000
457.50	423.2500
457.85	429.5500
458.21	413.0500
458.56	426.7500
458.91	407.2500
459.27	376.5000
459.62	385.0000
459.97	381.9500
460.32	389.6000
460.68	384.7500
461.03	374.5000
461.38	375.7000
461.74	403.5500
462.09	384.8000
462.44	361.2000
462.80	350.3500
463.15	350.2000
463.50	343.3500
463.85	363.1000
464.21	343.1000
464.56	350.8500
464.91	323.2000
465.26	328.6000
465.62	320.6000
465.97	334.2500
466.32	323.8000
466.67	316.7000
467.03	311.5500
467.38	309.9000
467.73	307.3000
468.08	307.1000
468.44	302.3500
468.79	295.4500
469.14	274.4000
469.49	285.5000
469.85	285.8000
470.20	299.2500
470.55	295.3500
470.90	291.1000
471.25	275.1000
471.61	277.1000
471.96	275.6000
472.31	278.2500
472.66	273.5000
473.01	279.1000
473.36	282.1000
473.72	274.9000
474.07	278.4000
474.42	279.7000
474.77	276.1500
475.12	284.5500
475.47	288.5000
475.83	288.8500
476.18	287.1000
476.53	284.2500
476.88	297.2000
477.23	298.3500
477.58	295.9500
477.93	301.8500
478.28	298.3000
478.64	305.3000
478.99	310.7500
479.34	317.2500
479.69	320.8500
480.04	329.2000
480.39	329.6500
480.74	322.4000
481.09	340.1000
481.44	342.6500
481.79	340.1000
482.15	343.1000
482.50	351.4500
482.85	354.4000
483.20	364.8500
483.55	363.3500
483.90	373.1000
484.25	374.5000
484.60	374.3000
484.95	382.0500
485.30	385.5500
485.65	392.6000
486.00	397.1500
486.35	395.2500
486.70	400.5500
487.05	416.5500
487.40	416.4500
487.75	421.8000
488.10	425.4000
488.45	428.1500
488.80	431.7000
489.15	443.1500
489.50	447.4500
489.85	450.9000
490.20	454.6000
490.55	465.7000
490.90	469.0000
491.25	473.5500
491.60	473.5500
491.95	479.4500
492.30	484.7500
492.65	496.4500
493.00	497.9500
493.35	500.5000
493.70	508.6000
494.05	516.2000
494.40	522.9500
494.75	524.9500
495.10	528.1000
495.45	536.2000
495.80	540.0500
496.15	548.9000
496.50	548.8000
496.84	546.3500
497.19	551.5500
497.54	561.2500
497.89	566.4000
498.24	568.3500
498.59	576.8500
498.94	571.6500
499.29	580.0500
499.64	583.2000
499.99	589.9500
500.33	594.1000
500.68	597.8000
501.03	600.3000
501.38	604.5000
501.73	614.9000
502.08	610.7500
502.43	618.6500
502.77	620.5000
503.12	627.5000
503.47	629.4500
503.82	635.4500
504.17	637.7500
504.52	645.8500
504.86	648.5000
505.21	658.2000
505.56	654.8000
505.91	658.1500
506.26	659.7500
506.61	667.4000
506.95	667.8500
507.30	671.2000
507.65	679.2500
508.00	678.2000
508.35	680.4500
508.69	685.6500
509.04	691.5500
509.39	687.6000
509.74	689.3000
510.08	692.1000
510.43	698.4000
510.78	701.1000
511.13	704.8000
511.47	705.3000
511.82	711.3500
512.17	709.7500
512.52	715.8500
512.86	720.4500
513.21	723.7000
513.56	721.4500
513.91	728.3000
514.25	730.7500
514.60	733.4000
514.95	735.9000
515.30	734.1500
515.64	731.6500
515.99	743.6500
516.34	745.0000
516.68	748.0500
517.03	746.7000
517.38	749.4000
517.72	758.8500
518.07	754.1500
518.42	753.8000
518.76	760.8500
519.11	760.7500
519.46	764.1500
519.80	760.0000
520.15	760.0000
520.50	762.1500
520.84	762.8500
521.19	768.6000
521.54	767.7000
521.88	763.1500
522.23	771.4000
522.58	765.1500
522.92	767.5000
523.27	769.3500
523.61	766.6000
523.96	768.9500
524.31	774.7000
524.65	774.1500
525.00	771.7000
525.34	761.0000
525.69	760.1000
526.04	773.1000
526.38	770.2500
526.73	767.8000
527.07	772.1500
527.42	765.3500
527.76	768.9500
528.11	772.5500
528.46	766.0500
528.80	762.5000
529.15	758.8500
529.49	755.5000
529.84	757.1000
530.18	753.0000
530.53	761.3000
530.87	759.2500
531.22	752.3000
531.56	753.3000
531.91	753.4500
532.25	749.3500
532.60	747.0500
532.94	749.9500
533.29	741.4500
533.63	737.3500
533.98	734.0500
534.32	741.0000
534.67	745.5000
535.01	742.1000
535.36	736.9000
535.70	741.3000
536.05	740.5500
536.39	743.9000
536.74	726.6500
537.08	727.7000
537.43	719.1000
537.77	721.2500
538.12	728.3500
538.46	725.7500
538.80	724.1000
539.15	717.2500
539.49	724.3000
539.84	727.0000
540.18	723.7000
540.53	716.7500
540.87	715.1000
541.21	721.6500
541.56	711.6500
541.90	716.2500
542.25	710.4500
542.59	705.8500
542.93	712.8500
543.28	702.1500
543.62	705.3000
543.97	700.6000
544.31	699.4500
544.65	695.5500
545.00	701.7500
545.34	700.7000
545.68	696.1500
546.03	692.2500
546.37	695.9000
546.71	693.8500
547.06	692.1000
547.40	691.5500
547.74	695.4500
548.09	687.9500
548.43	686.2500
548.77	683.7000
549.12	682.4500
549.46	680.0000
549.80	681.1500
550.15	683.7500
550.49	679.2000
550.83	677.1500
551.17	675.6500
551.52	672.6000
551.86	669.9000
552.20	671.3500
552.55	672.4000
552.89	669.3000
553.23	669.0500
553.57	669.7000
553.92	665.6500
554.26	670.2000
554.60	662.4000
554.94	658.3000
555.29	661.1000
555.63	662.2500
555.97	661.2000
556.31	656.8000
556.66	656.6500
557.00	651.8000
557.34	655.5000
557.68	654.5000
558.02	652.1000
558.37	651.3000
558.71	644.3000
559.05	644.6500
559.39	642.7500
559.73	642.8500
560.08	642.4500
560.42	640.9000
560.76	637.9000
561.10	633.8000
561.44	633.8000
561.78	636.8500
562.13	633.4000
562.47	629.3000
562.81	629.5500
563.15	627.6500
563.49	624.4500
563.83	626.3500
564.17	623.4000
564.52	618.4000
564.86	619.9500
565.20	617.0000
565.54	615.4000
565.88	610.4500
566.22	611.7000
566.56	604.0000
566.90	610.9000
567.24	603.6500
567.59	601.5500
567.93	600.9000
568.27	599.2000
568.61	598.8500
568.95	596.5000
569.29	592.4000
569.63	595.4500
569.97	590.1000
570.31	578.9500
570.65	583.3000
570.99	584.5500
571.33	584.1000
571.67	575.6500
572.01	576.9000
572.35	576.9000
572.69	571.9000
573.03	573.2000
573.37	566.7000
573.71	565.1500
574.05	561.2500
574.39	558.4000
574.73	560.8000
575.07	554.1000
575.41	555.3500
575.75	553.8500
576.09	554.6000
576.43	551.3500
576.77	548.8500
577.11	542.8500
577.45	542.8000
577.79	536.5000
578.13	541.0000
578.47	531.8000
578.81	532.2500
579.15	531.3000
579.49	533.3000
579.83	526.9500
580.17	527.8500
580.51	522.6500
580.85	522.4000
581.19	520.8000
581.53	516.0000
581.87	510.6500
582.20	511.8000
582.54	512.0000
582.88	506.6000
583.22	503.8500
583.56	499.8000
583.90	503.2500
584.24	496.9000
584.58	494.7500
584.92	496.6500
585.25	495.1000
585.59	492.7500
585.93	489.2000
586.27	491.5500
586.61	480.7500
586.95	484.1500
587.29	483.2000
587.62	476.7000
587.96	475.2000
588.30	480.7500
588.64	471.6500
588.98	469.4500
589.31	469.1500
589.65	465.8500
589.99	463.0500
590.33	461.0000
590.67	462.0500
591.01	459.8500
591.34	457.0500
591.68	455.1500
592.02	453.6000
592.36	451.5500
592.69	447.0500
593.03	445.9000
593.37	445.5000
593.71	443.4500
594.04	438.7000
594.38	436.8000
594.72	438.8500
595.06	436.2000
595.39	432.9000
595.73	431.5000
596.07	433.1000
596.41	430.7000
596.74	429.5000
597.08	424.8000
597.42	421.7000
597.76	419.8500
598.09	421.0500
598.43	414.1000
598.77	415.1000
599.10	414.5000
599.44	411.6000
599.78	408.4500
600.11	408.2000
600.45	408.3000
600.79	404.6000
601.12	401.1000
601.46	402.9500
601.80	402.3500
602.13	393.6500
602.47	392.1000
602.81	393.0000
603.14	389.2500
603.48	391.1000
603.82	387.8000
604.15	384.6000
604.49	383.0500
604.82	380.4500
605.16	381.3000
605.50	374.8000
605.83	376.4500
606.17	374.2500
606.50	373.0500
606.84	367.4000
607.18	366.9000
607.51	365.3000
607.85	362.8500
608.18	359.9500
608.52	360.7500
608.86	361.5500
609.19	355.8500
609.53	351.2500
609.86	353.7500
610.20	349.0000
610.53	347.7000
610.87	345.0500
611.20	346.1500
611.54	339.8500
611.87	339.1500
612.21	338.1500
612.54	336.2000
612.88	331.8500
613.21	333.2500
613.55	332.1000
613.88	327.1000
614.22	323.6500
614.55	322.7000
614.89	319.7500
615.22	319.1500
615.56	315.8500
615.89	315.5000
616.23	315.0500
616.56	309.2500
616.90	307.4500
617.23	306.6500
617.57	304.4500
617.90	303.0500
618.24	300.7000
618.57	299.7500
618.90	296.4000
619.24	293.9000
619.57	292.6500
619.91	293.2000
620.24	286.2500
620.58	285.3000
620.91	282.6500
621.24	281.8500
621.58	281.7000
621.91	279.0500
622.25	277.9000
622.58	276.5000
622.91	274.7000
623.25	269.7000
623.58	270.2000
623.91	266.0000
624.25	266.6000
624.58	266.2500
624.92	260.8000
625.25	259.8000
625.58	258.1000
625.92	257.2000
626.25	255.5500
626.58	255.6500
626.92	249.9500
627.25	249.9500
627.58	248.9000
627.91	245.5500
628.25	246.7000
628.58	243.2000
628.91	240.6500
629.25	239.5000
629.58	239.1500
629.91	236.2500
630.25	235.4000
630.58	232.7000
630.91	231.6000
631.24	230.1000
631.58	229.7000
631.91	228.8500
632.24	224.3500
632.57	222.9000
632.91	222.5000
633.24	218.5000
633.57	217.8500
633.90	217.1500
634.24	214.6500
634.57	214.0500
634.90	213.2000
635.23	208.0000
635.56	207.4500
635.90	206.6000
636.23	204.4000
636.56	204.4000
636.89	204.9000
637.22	202.1000
637.56	200.6500
637.89	196.9000
638.22	198.2000
638.55	197.1000
638.88	195.2000
639.21	194.4500
639.55	191.4500
639.88	189.4500
640.21	189.1500
640.54	188.3500
640.87	184.9000
641.20	185.6500
641.53	184.9000
641.87	182.4000
642.20	181.4000
642.53	179.5000
642.86	177.3500
643.19	178.2000
643.52	175.5500
643.85	176.5000
644.18	174.8000
644.51	171.3000
644.84	170.8500
645.18	168.8000
645.51	168.0500
645.84	167.5500
646.17	164.9500
646.50	166.3000
646.83	164.8500
647.16	161.4000
647.49	161.1500
647.82	161.1500
648.15	158.9000
648.48	156.8500
648.81	157.3500
649.14	155.6000
649.47	155.0000
649.80	153.2500
650.13	152.5500
650.46	153.5000
650.79	152.1000
651.12	151.1000
651.45	149.8500
651.78	148.6500
652.11	147.1500
652.44	146.5000
652.77	145.6500
653.10	144.7000
653.43	144.9000
653.76	143.1500
654.09	140.9000
654.42	140.8000
654.75	140.8000
655.08	138.5000
655.41	137.2500
655.74	137.6000
656.07	135.2500
656.39	135.3500
656.72	134.4000
657.05	132.3500
657.38	133.6000
657.71	132.0500
658.04	131.1000
658.37	129.7500
658.70	129.5500
659.03	128.8000
659.36	127.6000
659.68	128.2000
660.01	126.3500
660.34	126.1000
660.67	126.5500
661.00	123.6000
661.33	124.2500
661.66	121.5500
661.98	121.8000
662.31	121.0500
662.64	120.4500
662.97	119.8000
663.30	119.1500
663.63	117.7000
663.95	116.8500
664.28	116.2000
664.61	116.3000
664.94	115.4000
665.27	116.0000
665.59	114.3000
665.92	113.3000
666.25	113.1500
666.58	112.2500
666.91	112.9500
667.23	110.8500
667.56	109.6500
667.89	109.3000
668.22	109.3000
668.54	108.8000
668.87	108.1000
669.20	107.0500
669.53	106.2500
669.85	106.0500
670.18	105.5000
670.51	104.8500
670.83	103.3000
671.16	104.7000
671.49	103.4000
671.82	102.6500
672.14	102.4500
672.47	101.4000
672.80	100.9500
673.12	99.7500
673.45	101.5000
673.78	100.6500
674.10	98.6000
674.43	98.8500
674.76	98.4500
675.08	98.3000
675.41	97.8000
675.74	96.8000
676.06	95.4000
676.39	95.2000
676.72	95.1000
677.04	95.0000
677.37	94.4000
677.69	94.2500
678.02	93.8000
678.35	92.6000
678.67	91.1500
679.00	91.3500
679.32	93.3000
679.65	90.9500
679.98	91.8500
680.30	89.6500
680.63	89.7500
680.95	89.4500
681.28	87.3500
681.60	87.9500
681.93	88.5000
682.26	87.8500
682.58	87.5000
682.91	86.7500
683.23	87.4000
683.56	86.8500
683.88	86.7000
684.21	85.5000
684.53	84.9500
684.86	85.0000
685.18	85.2000
685.51	83.7500
685.83	83.8500
686.16	85.0500
686.48	84.1000
686.81	82.6000
687.13	82.5500
687.46	81.3000
687.78	82.3500
688.11	81.9500
688.43	81.0000
688.76	80.8500
689.08	80.9500
689.41	81.0000
689.73	79.9500
690.05	79.8000
690.38	79.1500
690.70	78.8500
691.03	78.4000
691.35	78.4500
691.68	78.2000
692.00	79.0000
692.32	78.1500
692.65	78.8000
692.97	78.4500
693.29	77.2500
693.62	76.5000
693.94	76.7500
694.27	75.5000
694.59	76.2000
694.91	77.0500
695.24	76.9500
695.56	75.6500
695.88	76.2000
696.21	75.4000
696.53	74.6000
696.85	74.6500
697.18	75.0500
697.50	74.5000
697.82	74.4500
698.15	73.2500
698.47	74.0500
698.79	73.7500
699.12	73.3000
699.44	73.2000
699.76	71.4000
700.09	73.3500
700.41	72.5500
700.73	72.3000
701.05	73.4500
701.38	71.8500
701.70	72.6500
702.02	72.4000
702.34	70.3500
702.67	72.4000
702.99	70.8500
703.31	71.3000
703.63	70.3000
703.96	71.0000
704.28	70.9500
704.60	70.1000
704.92	70.7500
705.25	70.4000
705.57	69.7500
705.89	69.7500
706.21	69.2000
706.53	69.2500
706.86	69.4000
707.18	69.3000
707.50	68.9000
707.82	68.7000
708.14	68.0500
708.46	67.8500
708.79	67.5500
709.11	69.4500
709.43	67.9000
709.75	68.0500
710.07	68.8500
710.39	68.4000
710.71	68.4000
711.04	68.2500
711.36	67.5000
711.68	68.1500
712.00	66.2500
712.32	66.6500
712.64	68.0500
712.96	67.9000
713.28	66.2000
713.60	67.1500
713.92	66.9000
714.24	65.6500
714.57	67.0500
714.89	66.2500
715.21	66.4500
715.53	65.2500
715.85	65.1000
716.17	66.1500
716.49	65.6500
716.81	65.9500
717.13	65.0000
717.45	65.2500
717.77	64.8500
718.09	65.8500
718.41	65.2500
718.73	64.6500
719.05	65.5000
719.37	64.6500
719.69	63.6500
720.01	64.3000
720.33	66.0000
720.65	65.9000
720.97	65.0500
721.29	63.8000
721.61	63.7500
721.93	64.3500
722.25	64.4500
722.57	64.2500
722.89	63.5500
723.21	62.7000
723.52	64.4000
723.84	64.1000
724.16	64.0500
724.48	63.9000
724.80	63.9500
725.12	63.4000
725.44	63.1000
725.76	64.1500
726.08	63.0000
726.40	63.2000
726.72	62.4500
727.03	62.3500
727.35	63.2500
727.67	63.7000
727.99	63.2000
728.31	63.5000
728.63	62.1500
728.95	62.4000
729.26	62.0500
729.58	63.9500
729.90	63.0500
730.22	62.1500
730.54	62.2500
730.86	62.9000
731.17	61.6500
731.49	61.5000
731.81	61.1000
732.13	62.9000
732.45	62.0000
732.76	61.9000
733.08	61.5000
733.40	62.4000
733.72	61.7000
734.03	61.9000
734.35	62.0500
734.67	62.1500
734.99	61.3000
735.30	62.0500
735.62	60.9500
735.94	62.0500
736.26	61.1000
736.57	62.0500
736.89	60.5500
737.21	59.9500
737.53	61.5000
737.84	61.1500
738.16	60.8500
738.48	60.8000
738.79	62.2500
739.11	60.9000
739.43	61.4500
739.74	60.8000
740.06	60.3500
740.38	61.2000
740.69	61.1000
741.01	60.1500
741.33	60.1500
741.64	60.5000
741.96	60.1500
742.28	60.5000
742.59	61.2000
742.91	59.8500
743.23	59.2500
743.54	60.1000
743.86	59.3000
744.17	59.7000
744.49	60.8000
744.81	60.7000
745.12	59.8500
745.44	59.5500
745.75	60.9500
746.07	59.8500
746.38	59.7500
746.70	59.5000
747.02	61.2000
747.33	59.8500
747.65	59.4500
747.96	60.1000
748.28	59.5500
748.59	58.9500
748.91	58.8000
749.22	59.5500
749.54	59.5000
749.85	58.7000
750.17	60.2000
750.48	59.6000
750.80	59.0500
751.11	58.6500
751.43	60.2000
751.74	60.0000
752.06	59.4500
752.37	59.4500
752.69	60.2000
753.00	58.9000
753.32	57.9500
753.63	59.6500
753.95	59.4000
754.26	59.5000
754.58	58.7000
754.89	59.3500
755.20	59.2000
755.52	58.7000
755.83	58.8500
756.15	59.4500
756.46	59.6500
756.78	57.8500
757.09	59.5500
757.40	58.8000
757.72	59.1500
758.03	58.8000
758.34	58.9000
758.66	58.3500
758.97	58.9500
759.29	58.9000
759.60	58.5500
759.91	57.9500
760.23	58.6500
760.54	58.7500
760.85	58.1500
761.17	59.7000
761.48	59.1000
761.79	58.7500
762.11	58.1000
762.42	59.0000
762.73	59.3500
763.05	58.4000
763.36	58.3000
763.67	58.7000
763.98	58.8500
764.30	58.0500
764.61	58.8500
764.92	59.6000
765.23	59.5000
765.55	58.7000
765.86	58.4500
766.17	58.5500
766.48	57.9500
766.80	57.6000
767.11	57.9000
767.42	58.2500
767.73	59.0500
768.05	58.8000
768.36	58.1000
768.67	57.7500
768.98	58.4500
769.29	58.8500
769.61	57.9000
769.92	58.1000
770.23	57.5000
770.54	57.0500
770.85	57.3000
771.17	58.7500
771.48	58.3000
771.79	58.2000
772.10	58.1500
772.41	58.3000
772.72	58.4500
773.03	57.6500
773.35	57.3000
773.66	57.3500
773.97	59.4500
774.28	57.6500
774.59	56.9000
774.90	57.6500
775.21	57.2500
775.52	58.2500
775.83	58.5000
776.15	57.8500
776.46	57.1500
776.77	57.9000
777.08	57.4500
777.39	58.0000
777.70	56.9000
778.01	58.1000
778.32	58.7000
778.63	58.1500
778.94	57.9500
779.25	58.2000
779.56	57.6000
779.87	58.7000
780.18	58.2000
780.49	58.7000
780.80	57.4000
781.11	58.2000
781.42	57.9500
781.73	58.1500
782.04	57.3500
782.35	57.4000
782.66	56.9500
782.97	57.6500
783.28	57.0500
783.59	58.2000
783.90	56.7000
784.21	57.5000
784.52	57.3000
784.83	58.1000
785.14	57.1500
785.45	57.0500
785.76	57.2000
786.06	58.0000
786.37	57.6000
786.68	57.3500
786.99	57.3500
787.30	57.9500
787.61	57.6000
787.92	58.0500
788.23	57.6500
788.54	58.3000
788.84	58.2500
789.15	57.6500
789.46	57.8000
789.77	57.6000
790.08	56.2000
790.39	56.5500
790.70	57.3500
791.00	57.9500
791.31	58.3000
791.62	57.6500
791.93	56.6000
792.24	57.1000
792.54	56.8500
792.85	57.6000
793.16	57.2000
793.47	57.2000
793.78	56.6500
794.08	56.7500
794.39	57.4000
794.70	57.3000
795.01	58.2500
795.31	57.5000
795.62	57.4500
795.93	57.8500
796.24	57.2500
796.54	56.8000
796.85	57.5500
797.16	58.3000
797.47	57.2500
797.77	56.1000
798.08	57.5500
798.39	57.2000
798.69	57.6000
799.00	57.1000
799.31	58.0000
799.62	57.9000
799.92	56.4500
800.23	56.4000
800.54	57.3500
800.84	57.6000
801.15	57.8500
801.46	57.6000
801.76	57.6000
802.07	57.3000
802.37	57.1000
802.68	57.4500
802.99	56.7500
803.29	58.1500
803.60	56.9500
803.91	56.6500
804.21	57.2500
804.52	57.0000
804.82	57.7000
805.13	57.8500
805.44	56.7500
805.74	56.6000
806.05	57.0000
806.35	56.6000
806.66	57.1000
806.96	57.1500
807.27	56.8000
807.57	56.6500
807.88	56.6000
808.19	57.6500
808.49	57.6500
808.80	56.5000
809.10	57.6500
809.41	57.3000
809.71	57.1000
810.02	58.1000
810.32	57.6500
810.63	58.2000
810.93	56.4000
811.24	57.4500
811.54	56.9000
811.85	58.0000
812.15	57.1500
812.45	56.8500
812.76	57.0500
813.06	57.9500
813.37	57.1000
813.67	56.9500
813.98	57.0000
814.28	57.5000
814.58	57.5000
814.89	57.2000
815.19	57.0500
815.50	57.0500
815.80	57.3500
816.11	56.6000
816.41	56.7500
816.71	57.4000
817.02	57.6000
817.32	57.8000
817.62	57.9000
817.93	56.6000
818.23	56.6000
818.53	56.7000
818.84	57.4000
819.14	58.4500
819.44	56.4500
819.75	57.6000
820.05	56.2500
820.35	57.6000
820.66	56.5000
820.96	57.1500
821.26	57.4000
821.57	55.6500
821.87	57.3500
822.17	56.3500
822.48	56.9500
822.78	56.7500
823.08	58.3000
823.38	57.6000
823.69	56.4000
823.99	58.1000
824.29	57.2500
824.59	56.7500
824.90	56.4500
825.20	56.2000
825.50	56.7500
825.80	57.9500
826.10	57.7500
826.41	57.2000
826.71	55.4500
827.01	57.4000
827.31	56.5000
827.61	56.2000
827.92	57.3000
828.22	56.5000
828.52	56.6000
828.82	57.1000
829.12	57.1500
829.42	57.1500
829.73	57.0500
830.03	56.4500
830.33	57.4500
830.63	57.1000
830.93	57.3000
831.23	57.2000
831.53	57.3000
831.83	55.7000
832.14	57.1000
832.44	56.8000
832.74	57.0000
833.04	56.2500
833.34	56.4000
833.64	57.0000
833.94	56.3000
834.24	57.3000
834.54	56.3500
834.84	57.5500
835.14	57.8000
835.44	56.9500
835.74	57.1000
836.04	57.2000
836.34	57.3000
836.64	57.5000
836.95	57.0500
837.25	57.3500
837.55	56.6000
837.85	56.6500
838.15	57.0500
838.45	55.9000
838.74	56.7000
839.04	56.2500
839.34	56.1000
839.64	56.4000
839.94	56.3500
840.24	56.6000
840.54	57.1500
840.84	56.8000
841.14	56.2500
841.44	56.6500
841.74	55.2500
842.04	56.5000
842.34	56.4500
842.64	56.7000
842.94	56.6500
843.24	56.9000
843.53	57.6000
843.83	56.1500
844.13	56.4000
844.43	56.8500
844.73	57.8000
845.03	56.8000
845.33	56.3500
845.63	57.1500
845.92	56.0500
846.22	56.8500
846.52	56.9500
846.82	57.8000
847.12	56.2500
847.42	56.8500
847.71	56.7500
848.01	55.9500
848.31	56.4000
848.61	57.7500
848.91	56.5000
849.20	55.8000
849.50	57.2000
849.80	56.3000
850.10	56.9500
850.39	57.0000
850.69	56.3500
850.99	56.6000
851.29	56.7000
851.59	58.0500
851.88	56.9000
852.18	57.8000
852.48	57.5000
852.77	57.1500
853.07	56.9000
853.37	56.4500
853.67	56.9500
853.96	57.1000
854.26	57.6500
854.56	57.1000
854.85	56.9500
855.15	56.6500
855.45	56.9000
855.74	56.8000
856.04	57.2500
856.34	56.9500
856.63	57.0000
856.93	57.3500
857.23	55.7000
857.52	56.0000
857.82	57.5000
858.11	56.4000
858.41	57.3000
858.71	57.3000
859.00	57.0000
859.30	55.7500
859.59	57.3000
859.89	57.6000
860.19	56.2500
860.48	56.3500
860.78	56.9500
861.07	56.8500
861.37	56.6500
861.66	56.6000
861.96	57.3000
862.26	56.3500
862.55	56.4500
862.85	56.8000
863.14	57.0000
863.44	55.7500
863.73	56.2000
864.03	56.2500
864.32	56.1000
864.62	57.2000
864.91	56.6500
865.21	56.5500
865.50	56.6500
865.80	57.1000
866.09	56.9500
866.39	56.6000
866.68	57.2000
866.97	56.3000
867.27	55.8500
867.56	56.4000
867.86	56.9500
868.15	57.6500
868.45	57.3000
868.74	57.8000
869.03	55.8500
869.33	57.2000
869.62	56.9000
869.92	56.6500
870.21	57.8000
870.50	57.7500
870.80	57.0000
871.09	56.2000
871.39	56.3500
871.68	57.9500
871.97	56.5000
872.27	56.4000
872.56	57.0500
872.85	57.2500
873.15	56.5000
873.44	57.4500
873.73	56.9000
874.03	56.3000
874.32	56.2000
874.61	56.5000
874.90	56.9500
875.20	57.8000
875.49	55.7500
875.78	57.0000
>>>>>End Spectral Data<<<<<
